Time (s),Acceleration x (m/s^2),Acceleration y (m/s^2),Acceleration z (m/s^2)
8.405376241,-28.45000076,26.97500038,28.25
8.41545572,-28.30000114,26.82500076,27.16250038
8.425523897,-27.72500038,26.67500114,27.625
8.435596241,-27.875,26.67500114,28.39999962
8.44566572,-27.42500114,25.77499962,27.92500114
8.455738428,-27.125,25.47500038,27.77499962
8.465814105,-27.57500076,26.07500076,27.47500038
8.475888428,-27.85000038,26.07500076,27.77499962
8.485963897,-28.30000114,26.10000038,27.92500114
8.496042074,-28.4375,25.95000076,27.61250114
8.506116345,-28.45000076,25.80000114,28.375
8.51618947,-28.60000038,26.375,28.39999962
8.526263897,-28.30000114,26.82500076,28.25
8.536337334,-27.72500038,26.22500038,28.55000114
8.546408689,-27.72500038,26.67500114,28.71249962
8.556483689,-27.875,26.67500114,28.86250114
8.56655723,-28.30000114,25.95000076,28.55000114
8.576632074,-28.58749962,25.95000076,28.55000114
8.586708845,-28.30000114,26.82500076,29.01250076
8.596787803,-27.72500038,26.22500038,29.01250076
8.606865355,-27.57500076,26.07500076,28.86250114
8.61694447,-27.42500114,26.375,28.86250114
8.627018272,-27.57500076,25.77499962,28.85000038
8.637091137,-28.0,26.375,29.01250076
8.647167387,-27.57500076,26.66250038,29.1875
8.65723973,-27.27499962,26.22500038,29.1875
8.667311449,-27.42500114,26.22500038,29.33749962
8.677384262,-27.27499962,26.22500038,29.95000076
8.687459105,-26.98750114,26.66250038,29.95000076
8.697532595,-27.13750076,26.51250076,30.42500114
8.707603741,-27.13750076,26.36250114,31.33749962
8.717676553,-26.83749962,25.77499962,30.875
8.727747282,-27.42500114,26.36250114,30.57500076
8.737819782,-27.875,26.8125,30.27499962
8.74789348,-26.98750114,26.07500076,30.25
8.757969157,-26.98750114,25.92500114,31.02499962
8.768039834,-27.42500114,25.625,30.39999962
8.778113168,-27.57500076,25.47500038,30.39999962
8.788186709,-27.27499962,25.47500038,31.02499962
8.798257751,-26.98750114,25.625,30.55000114
8.808327439,-26.83749962,25.625,30.55000114
8.818399834,-26.83749962,26.0625,30.25
8.82846822,-27.28750038,26.36250114,30.57500076
8.838539834,-27.57500076,26.51250076,30.875
8.84861473,-27.875,26.52499962,30.10000038
8.858686189,-28.17500114,26.82500076,29.80000114
8.868755512,-27.72500038,26.375,30.25
8.878826501,-27.27499962,26.07500076,30.39999962
8.888901345,-27.72500038,26.07500076,29.48750114
8.89897447,-27.85000038,25.77499962,29.16250038
8.909046293,-27.55000114,25.20000076,29.3125
8.91911973,-27.70000076,25.20000076,29.61250114
8.929193324,-27.27499962,25.625,30.25
8.939267126,-27.57500076,25.77499962,29.9375
8.949342855,-27.72500038,26.07500076,30.10000038
8.95941723,-27.875,26.52499962,29.95000076
8.969492178,-28.02499962,26.67500114,29.1875
8.979566657,-28.02499962,26.52499962,29.16250038
8.98964223,-27.85000038,25.64999962,29.61250114
8.999719887,-27.70000076,25.5,29.46249962
9.009797387,-27.72500038,25.77499962,29.9375
9.019878324,-28.0,25.64999962,29.78750038
9.029949887,-28.30000114,25.35000038,29.0
9.040025928,-28.14999962,25.35000038,29.30000114
9.050104366,-28.30000114,25.64999962,28.70000076
9.060178584,-28.45000076,25.95000076,28.07500076
9.070248428,-28.45000076,26.375,28.39999962
9.080317022,-28.14999962,26.97500038,28.10000038
9.090389314,-28.60000038,26.52499962,27.3125
9.100459105,-29.1875,26.55000114,26.98750114
9.110531241,-28.89999962,27.125,27.47500038
9.120604626,-28.45000076,26.97500038,27.01250076
9.130676501,-28.73750114,26.97500038,26.38750076
9.140749939,-29.33749962,27.125,26.86250114
9.150821189,-29.61250114,27.0,26.53750038
9.160894262,-29.1875,26.85000038,26.53750038
9.170966657,-28.73750114,27.125,26.23750114
9.181040095,-28.88750076,27.42500114,25.47500038
9.191113272,-28.88750076,27.125,25.92500114
9.20118697,-28.45000076,27.42500114,26.23750114
9.211263012,-27.57500076,27.71249962,26.875
9.221337699,-27.72500038,27.26250076,27.32500076
9.231413272,-28.02499962,27.26250076,27.32500076
9.241486709,-28.45000076,27.27499962,27.17500114
9.251561345,-28.60000038,27.27499962,27.625
9.261635147,-28.45000076,26.97500038,27.95000076
9.271710824,-29.03750038,26.25,28.07500076
9.281785095,-28.88750076,26.10000038,28.22500038
9.29185822,-29.03750038,25.95000076,27.76250076
9.301926918,-29.33749962,26.10000038,27.76250076
9.312000407,-29.61250114,25.66250038,28.0625
9.322073949,-30.35000038,25.96249962,28.0625
9.332141709,-30.95000076,25.96249962,28.21249962
9.342214782,-30.35000038,25.38750076,28.03750038
9.352288012,-29.89999962,25.08749962,27.42500114
9.362359209,-30.625,24.64999962,27.57500076
9.372428689,-30.77499962,24.9375,27.88750076
9.382498116,-30.625,24.64999962,27.72500038
9.392568845,-30.77499962,24.05000114,28.02499962
9.402640928,-30.77499962,23.77499962,28.02499962
9.412714209,-30.77499962,24.05000114,28.02499962
9.422784418,-30.32500076,24.20000076,28.02499962
9.432856762,-29.89999962,24.05000114,27.72500038
9.442929887,-30.32500076,23.89999962,28.02499962
9.453007647,-30.20000076,24.05000114,29.11250114
9.463082647,-30.47500038,23.89999962,29.11250114
9.473153064,-30.625,23.75,29.08749962
9.483225095,-30.32500076,24.05000114,28.78750038
9.49329322,-30.32500076,23.89999962,28.32500076
9.503363272,-30.625,23.60000038,28.625
9.513434678,-30.625,23.60000038,28.9375
9.523506553,-31.0625,23.77499962,28.47500038
9.533580668,-30.77499962,23.75,28.17500114
9.543654366,-30.91250038,23.32500076,27.85000038
9.553727178,-31.21249962,23.03750038,27.83749962
9.56380072,-30.76250076,23.17500114,27.6875
9.573874678,-30.76250076,22.73750114,27.38750076
9.583944262,-30.91250038,23.02499962,27.23750114
9.594014418,-30.61250114,23.47500038,27.55000114
9.604087282,-30.32500076,24.05000114,27.39999962
9.614157751,-30.05000114,24.63750076,27.27499962
9.624228116,-29.89999962,24.48750114,27.27499962
9.63429848,-29.45000076,24.48750114,26.95000076
9.644367074,-29.01250076,24.33749962,26.5
9.654439262,-28.4375,24.76250076,26.20000076
9.664508741,-27.70000076,25.35000038,25.13750076
9.674579991,-27.10000038,25.80000114,24.98750114
9.684648168,-26.67500114,26.22500038,25.0
9.694719887,-26.52499962,26.52499962,24.55000114
9.704789366,-25.78750038,26.66250038,23.9375
9.714864209,-24.47500038,27.08749962,23.03750038
9.724941397,-24.02499962,27.82500076,21.35000038
9.73501848,-24.32500076,28.42500114,20.89999962
9.745091137,-24.35000038,28.85000038,21.21249962
9.755167178,-23.16250038,28.98750114,20.76250076
9.765241032,-21.55000114,29.86250114,20.01250076
9.775316449,-20.53750038,30.30000114,20.1875
9.785387803,-19.8125,30.42500114,20.05000114
9.795460303,-19.22500038,31.16250038,19.89999962
9.805534678,-18.77499962,31.4375,19.60000038
9.815603897,-18.05000114,31.58749962,19.0
9.825672907,-17.61250114,31.58749962,18.70000076
9.835741501,-16.4375,31.57500076,18.85000038
9.845808324,-15.40000057,31.85000038,18.72500038
9.855879991,-15.42500019,31.85000038,19.48750114
9.865950303,-14.83750057,32.28750229,20.27499962
9.876023168,-14.11250019,32.86249924,20.14999962
9.886094418,-13.375,32.71250153,19.85000038
9.896167959,-12.65000057,33.0,19.55000114
9.906234887,-12.5,33.15000153,19.70000076
9.916302387,-11.3125,32.67499924,20.46249962
9.926373428,-10.0,32.66250229,21.10000038
9.936445303,-9.125,33.08750153,21.125
9.946514262,-8.237500191,33.08750153,20.97500038
9.956587282,-7.362500191,33.52500153,20.52499962
9.966658741,-7.375,33.95000076,21.16250038
9.976730459,-6.625,33.65000153,21.77499962
9.986797803,-5.162499905,33.63750076,21.47500038
9.996867178,-4.137500286,33.48749924,21.95000076
10.00693452,-3.549999952,33.76250076,21.96249962
10.01700603,-2.375,33.60000229,22.11250114
10.02707739,-1.9375,33.75,22.13750076
10.03714806,-1.362500072,34.17499924,21.83749962
10.04721681,-0.3250000179,34.17499924,21.83749962
10.05728832,0.5500000119,33.57500076,21.83749962
10.06735666,0.5500000119,33.42499924,21.6875
10.07742489,0.6999999881,32.67499924,21.66250038
10.08749426,1.600000024,32.07500076,21.51250076
10.09756447,2.037500143,32.8125,21.36250114
10.10763171,1.887500048,32.67499924,21.36250114
10.1177016,2.1875,31.77499962,21.66250038
10.1277727,2.337500095,31.625,21.8125
10.13784218,2.637500048,31.20000076,21.8125
10.14791233,2.637500048,31.20000076,22.11250114
10.15798223,2.200000048,30.60000038,23.1875
10.16805223,2.637500048,30.14999962,23.1875
10.17812239,2.637500048,30.14999962,22.71249962
10.18818879,2.350000143,29.5625,23.01250076
10.1982577,2.650000095,29.71249962,23.01250076
10.20832468,2.5,30.16250038,22.86250114
10.21839088,2.049999952,30.46249962,22.5625
10.22845812,1.75,30.3125,22.86250114
10.23852827,1.175000072,29.58749962,23.61250114
10.24859853,0.462500006,28.70000076,22.67500114
10.2586677,-0.4250000119,28.27499962,22.03750038
10.26873379,-1.600000024,28.28750038,22.78750038
10.27880541,-3.0625,28.3125,23.86250114
10.28887692,-3.950000048,27.72500038,24.46249962
10.29894848,-4.974999905,27.72500038,24.46249962
10.30901827,-5.5625,27.75,24.91250038
10.31908494,-6.287499905,26.5625,25.1875
10.32915723,-7.599999905,26.0,25.63750076
10.33922827,-9.0625,26.14999962,25.9375
10.34929775,-9.8125,26.17500114,27.32500076
10.35936806,-10.67500019,25.58749962,27.61250114
10.36943801,-11.11250019,24.71249962,26.67500114
10.37950921,-11.6875,24.57500076,26.97500038
10.38957895,-12.72500038,24.42500114,27.10000038
10.39965004,-12.42500019,24.42500114,27.27499962
10.40972129,-13.02500057,24.45000076,27.57500076
10.41979077,-13.32499981,24.57500076,28.03750038
10.42985983,-13.44999981,24.60000038,28.03750038
10.43993145,-14.48750019,24.30000114,28.63750076
10.44999931,-15.51249981,24.16250038,29.08749962
10.46006973,-15.36250019,23.71249962,29.23750114
10.4701352,-15.21250057,23.28750038,29.6875
10.48020483,-15.80000019,23.4375,30.16250038
10.49027239,-16.25,23.4375,30.61250114
10.50034062,-15.51249981,23.13750076,30.3125
10.51040983,-15.0625,22.98750114,29.53750038
10.52047739,-15.21250057,23.28750038,29.22500038
10.53054692,-15.66250038,24.46249962,28.78750038
10.5406177,-15.66250038,24.76250076,28.78750038
10.55068629,-15.66250038,24.91250038,28.9375
10.56075515,-15.96250057,25.0625,28.78750038
10.57082254,-15.51249981,24.46249962,28.32500076
10.58089213,-15.36250019,24.46249962,28.17500114
10.59096332,-15.8125,24.91250038,27.70000076
10.60103176,-16.39999962,24.48750114,27.70000076
10.61110129,-16.39999962,24.48750114,27.70000076
10.62117155,-16.39999962,24.33749962,27.6875
10.63124145,-16.82500076,24.03750038,27.53750038
10.64130973,-18.01250076,23.89999962,27.36250114
10.65137702,-17.98750114,23.17500114,27.8125
10.66144707,-17.71249962,23.02499962,27.96249962
10.6715164,-18.28750038,23.32500076,28.11250114
10.68158614,-18.13750076,22.875,28.41250038
10.69165291,-18.57500076,21.5625,27.92500114
10.70171775,-19.60000038,21.5625,28.22500038
10.71178473,-19.60000038,21.42500114,28.22500038
10.72185463,-19.88750076,20.97500038,27.73750114
10.7319227,-20.16250038,21.0,27.58749962
10.74199348,-20.03750038,21.27499962,27.58749962
10.75206338,-19.30000114,21.27499962,27.46249962
10.76213385,-18.85000038,20.67500114,28.0625
10.77220322,-18.27499962,20.8125,28.70000076
10.78227286,-17.97500038,21.26250076,28.70000076
10.79233707,-17.6875,21.11250114,28.85000038
10.80240103,-16.8125,21.97500038,28.88750076
10.81246978,-16.67500114,22.70000076,28.28750038
10.82253827,-15.94999981,23.0,27.20000076
10.83260655,-15.35000038,23.58749962,25.97500038
10.84267551,-15.5,24.1875,25.22500038
10.85274265,-15.51249981,25.0625,25.07500076
10.86281072,-14.91250038,25.35000038,23.53750038
10.872879,-14.63749981,26.10000038,22.17500114
10.88294707,-13.77500057,27.71249962,21.4375
10.89301661,-12.4375,28.57500076,20.22500038
10.90308515,-11.42500019,29.0,19.625
10.91315343,-10.97500038,29.30000114,18.25
10.92322233,-10.55000019,30.03750038,16.71249962
10.93329228,-8.9375,30.75,15.51249981
10.94335838,-8.199999809,31.32500076,13.67500019
10.95342494,-7.900000095,32.51250076,12.16250038
10.96349322,-6.4375,33.23749924,10.9375
10.973564,-5.412499905,33.07500076,10.02500057
10.98363317,-5.262500286,33.22500229,9.550000191
10.99369921,-4.550000191,34.10000229,8.800000191
11.00376801,-3.662500143,34.10000229,8.350000381
11.0138403,-3.0625,33.78750229,9.275000572
11.02390911,-2.049999952,34.0625,9.912500381
11.03397666,-1.600000024,33.91250229,9.287500381
11.04404457,-1.450000048,33.91250229,9.462500572
11.0541127,-0.287499994,34.04999924,10.40000057
11.06418473,0.5875000358,34.17499924,10.71250057
11.07425489,1.175000072,34.17499924,10.5625
11.08432124,1.925000072,33.875,9.949999809
11.09438952,3.387500048,33.86249924,9.5
11.10445921,4.5625,33.98749924,9.050000191
11.11452942,4.849999905,33.98749924,9.050000191
11.12459713,5.724999905,34.27500153,9.362500191
11.13466968,6.762500286,34.40000153,8.912500381
11.14473551,6.762500286,33.82500076,7.974999905
11.15480655,7.787499905,33.95000076,8.449999809
11.16487322,9.25,33.9375,9.400000572
11.1749452,9.400000572,34.08750153,8.787500381
11.18501468,8.675000191,34.38750076,8.462500572
11.1950853,8.375,34.40000153,8.0
11.20515546,8.949999809,34.6875,7.075000286
11.21523025,8.975000381,33.95000076,6.912499905
11.22529911,8.675000191,33.65000153,6.912499905
11.23537077,7.9375,34.25,7.075000286
11.24544504,7.637500286,34.40000153,7.375
11.25551713,6.912499905,34.42499924,7.0625
11.26558588,6.175000191,34.57500076,7.212500095
11.27565827,5.425000191,35.17499924,8.0
11.28573187,3.962500095,35.03750229,8.449999809
11.29580437,3.237499952,34.46250153,9.050000191
11.30587155,2.5,34.01250076,9.800000191
11.31594015,0.4375,34.625,10.41250038
11.3260103,-1.175000072,34.79999924,11.16250038
11.33608223,-2.049999952,34.51250076,11.9375
11.34615213,-3.237499952,34.08750153,12.6875
11.35622036,-3.662500143,33.04999924,13.13749981
11.36629046,-3.8125,33.35000229,13.90000057
11.37636348,-4.712500095,34.23749924,14.22500038
11.38642963,-5.425000191,33.79999924,14.19999981
11.39649843,-6.175000191,33.375,14.97500038
11.4065701,-6.612500191,33.67499924,14.65000057
11.41664082,-6.612500191,33.67499924,13.88749981
11.42670895,-7.037499905,33.82500076,13.58750057
11.43677687,-8.225000381,33.83750153,13.41250038
11.44684364,-8.949999809,33.5625,13.55000019
11.45691442,-9.100000381,33.5625,13.71250057
11.46698437,-9.6875,33.86249924,13.40000057
11.47705067,-10.13749981,33.86249924,12.77500057
11.48711963,-11.0,33.72500229,12.3125
11.49718905,-11.60000038,33.72500229,12.28750038
11.50725666,-12.02500057,34.02500153,12.61250019
11.51732463,-12.02500057,34.17499924,11.83750057
11.5273903,-12.02500057,34.04999924,11.375
11.53746108,-12.17500019,33.90000153,10.90000057
11.54752952,-12.47500038,34.20000076,9.8125
11.55760082,-12.17500019,34.20000076,8.75
11.5676701,-12.17500019,34.625,8.125
11.57773655,-12.61250019,34.95000076,7.512500286
11.58780296,-12.16250038,34.65000153,6.425000191
11.59787036,-12.46250057,34.95000076,5.5
11.60793801,-12.16250038,34.95000076,5.050000191
11.61800499,-12.01249981,34.5,4.887500286
11.62807541,-12.58750057,34.0625,4.5625
11.63814077,-12.61250019,34.35000229,4.862500191
11.64820655,-12.46250057,34.35000229,5.5
11.65827275,-13.03750038,34.5,5.950000286
11.66833983,-13.21250057,34.95000076,7.212500095
11.6784077,-13.48750019,34.5,8.275000572
11.6884753,-14.375,34.51250076,9.025000572
11.69854614,-14.52500057,34.66250229,10.11250019
11.70861161,-14.375,34.0625,10.88749981
11.71868265,-14.22500038,33.03750229,12.25
11.72875114,-14.375,32.58750153,13.63749981
11.73881733,-15.69999981,32.60000229,14.71250057
11.74888494,-15.85000038,32.29999924,16.25
11.7589526,-15.55000019,31.27499962,17.3125
11.76902062,-15.83750057,30.82500076,17.61250114
11.77908947,-15.83750057,30.97500038,17.46249962
11.78915957,-15.83750057,31.27499962,17.0
11.79922963,-15.40000057,32.29999924,17.64999962
11.80929754,-16.0,31.70000076,18.39999962
11.81936603,-16.28750038,31.125,17.76250076
11.8294378,-16.13750076,31.42500114,16.85000038
11.83951171,-16.13750076,31.27499962,17.76250076
11.84958369,-15.125,32.15000153,17.1875
11.85965181,-14.38749981,32.88750076,16.58749962
11.86971916,-14.97500038,32.88750076,16.11250114
11.87979077,-14.97500038,32.58750153,14.41250038
11.88985843,-14.52500057,32.73749924,12.10000038
11.89992473,-14.07499981,33.1875,10.40000057
11.90999181,-13.63749981,33.61249924,9.650000572
11.92005963,-13.48750019,33.91250229,8.412500381
11.93013041,-13.48750019,34.66250229,6.724999905
11.94020239,-13.1875,35.25,5.650000095
11.95026858,-13.1875,35.54999924,4.4375
11.96033041,-12.58750057,34.65000153,3.174999952
11.97039754,-12.01249981,34.5,2.412500143
11.980464,-12.3125,35.25,2.424999952
11.99052937,-12.4375,34.65000153,2.5625
12.00059754,-12.3125,34.65000153,2.875
12.010669,-12.01249981,35.22500229,3.200000048
12.02073848,-12.02500057,35.67499924,3.362499952
12.03080364,-11.44999981,35.8125,3.987499952
12.04086957,-11.0,36.11249924,4.925000191
12.05093733,-10.41250038,36.23749924,4.775000095
12.06100384,-9.400000572,36.375,5.712500095
12.07107093,-8.525000572,36.65000153,6.200000286
12.08113463,-7.787499905,37.10000229,5.425000191
12.09120103,-7.487500191,36.95000076,5.275000095
12.10126593,-7.337500095,36.79999924,5.275000095
12.11133327,-6.462500095,36.9375,5.75
12.12139723,-6.325000286,37.08750153,6.0625
12.1314627,-6.175000191,37.21250153,5.762500286
12.14152812,-5.450000286,37.0625,5.912499905
12.15159244,-4.862500191,37.35000229,5.9375
12.16165806,-4.712500095,37.35000229,6.087500095
12.17172197,-3.837500095,37.77500153,5.787499905
12.1817864,-3.387500048,37.77500153,5.800000191
12.19184916,-2.650000095,37.17499924,5.950000286
12.20191395,-1.487500072,37.76250076,6.275000095
12.21197869,-1.1875,38.03750229,6.912499905
12.22204437,-0.3125,37.16250229,6.737500191
12.23210968,0.137500003,36.86249924,6.587500095
12.24217515,-0.01250000019,37.13750076,7.0625
12.25223957,-0.02500000037,37.28750229,7.525000095
12.26230707,1.0,37.875,7.375
12.27237239,1.149999976,37.57500076,7.375
12.28243916,0.5749999881,37.28750229,8.0
12.29250421,0.4250000119,36.83750153,7.825000286
12.3025726,0.4250000119,36.83750153,8.125
12.31263879,-0.02500000037,36.83750153,9.6875
12.32270062,-0.8874999881,36.26250076,9.962500572
12.33276265,-1.1875,36.5625,10.4375
12.34282473,-1.787500024,37.01250076,11.52500057
12.35288858,-2.799999952,36.27500153,11.80000019
12.36295155,-4.137500286,35.41250229,12.08750057
12.37301806,-5.012500286,35.71250153,13.0
12.38308536,-5.900000095,35.73749924,13.625
12.39315405,-7.212500095,35.60000229,14.22500038
12.40322166,-7.787499905,35.0,14.52500057
12.41329265,-8.525000572,34.4375,14.5
12.42336181,-9.275000572,34.875,15.125
12.43343431,-10.58750057,34.88750076,15.57499981
12.44350348,-11.16250038,34.61249924,15.72500038
12.45357077,-11.76249981,34.61249924,15.875
12.46363536,-12.35000038,34.02500153,15.85000038
12.47370265,-13.21250057,33.45000076,16.13750076
12.48377228,-14.38749981,33.76250076,16.13750076
12.49383879,-14.38749981,33.46250153,15.66250038
12.50390379,-15.27500057,33.03750229,15.80000019
12.51397072,-17.1875,33.04999924,16.10000038
12.52403728,-17.61250114,33.04999924,16.25
12.53410437,-17.46249962,32.90000153,16.71249962
12.5441703,-17.61250114,32.47500229,17.01250076
12.55423697,-17.61250114,31.875,17.3125
12.56429905,-17.89999962,31.58749962,17.76250076
12.57436244,-18.625,31.73750114,18.0625
12.58442244,-19.22500038,32.48749924,18.38750076
12.59448713,-19.52499962,32.1875,18.85000038
12.60455218,-19.67500114,32.1875,18.38750076
12.61461817,-19.96249962,32.33750153,17.76250076
12.6246814,-19.67500114,32.63750076,18.23750114
12.63474911,-19.375,32.63750076,18.55000114
12.64481588,-19.8125,31.76250076,17.75
12.65488697,-20.53750038,31.47500038,17.27499962
12.66495364,-20.83749962,31.625,17.125
12.67501963,-20.38750076,31.32500076,17.27499962
12.68508489,-20.6875,31.625,17.125
12.69515207,-20.53750038,32.21250153,17.30000114
12.70521916,-20.08749962,31.32500076,17.75
12.71528744,-20.08749962,30.875,17.875
12.72535499,-20.08749962,30.72500038,18.8125
12.73542676,-19.8125,31.01250076,19.28750038
12.74549426,-19.66250038,30.72500038,19.89999962
12.75556088,-19.0625,29.25,21.10000038
12.7656291,-18.625,28.80000114,22.33749962
12.77569588,-18.92500114,29.22500038,22.96249962
12.78576025,-19.0625,28.95000076,23.11250114
12.79582588,-19.51250076,28.5,23.11250114
12.8058914,-19.9375,28.21249962,23.86250114
12.8159603,-20.07500076,27.61250114,23.53750038
12.8260165,-19.92500114,27.03750038,23.22500038
12.83608213,-19.63750076,27.3125,23.23750114
12.84615218,-19.48750114,27.3125,23.38750076
12.85622525,-19.48750114,26.73750114,24.3125
12.86628624,-19.03750038,25.6875,25.52499962
12.87635338,-19.1875,25.10000038,26.30000114
12.88641952,-19.1875,24.95000076,26.89999962
12.8964864,-19.03750038,24.35000038,27.8125
12.90655228,-18.73750114,24.64999962,28.45000076
12.91662082,-18.01250076,24.5,27.98750114
12.92669062,-16.82500076,24.48750114,28.14999962
12.93676161,-16.55000114,24.76250076,29.08749962
12.94682817,-16.85000038,24.33749962,29.07500076
12.95689286,-15.96250057,24.76250076,28.78750038
12.96695978,-15.38749981,24.89999962,28.78750038
12.97702489,-14.9375,24.75,28.48750114
12.98709395,-14.05000019,25.05000114,27.875
12.99715931,-13.17500019,25.02499962,28.03750038
13.0072265,-12.4375,24.875,27.42500114
13.01729286,-12.57499981,25.02499962,26.5
13.0273577,-11.41250038,26.1875,26.22500038
13.0374276,-10.69999981,26.92500114,25.78750038
13.04749536,-10.11250019,27.64999962,25.48750114
13.05756416,-9.387499809,28.23750114,24.27499962
13.06763353,-8.487500191,28.08749962,23.64999962
13.07770077,-7.325000286,28.0625,23.52499962
13.08776905,-6.287499905,28.5,22.45000076
13.09784088,-5.862500191,29.07500076,22.14999962
13.10790598,-4.974999905,29.07500076,22.0
13.11797634,-4.400000095,29.36250114,21.39999962
13.12804608,-4.400000095,29.8125,20.95000076
13.13811457,-3.8125,30.23750114,20.95000076
13.14818384,-3.512500048,30.375,20.64999962
13.15824879,-2.9375,30.22500038,20.20000076
13.16832145,-2.049999952,30.5,20.67500114
13.1783927,-1.024999976,30.64999962,21.3125
13.18846093,-0.875,30.05000114,21.61250114
13.19853249,-0.875,30.20000076,21.91250038
13.20860239,-0.8874999881,30.9375,21.77499962
13.21866978,0.01250000019,30.48750114,21.77499962
13.22874108,1.037500024,30.03750038,21.46249962
13.23880817,1.925000072,30.16250038,21.32500076
13.24887603,2.9375,30.89999962,21.8125
13.25894327,3.512500048,30.875,21.8125
13.2690115,4.550000191,30.72500038,21.66250038
13.27907817,5.575000286,30.86250114,21.83749962
13.28913989,6.462500095,29.96249962,21.66250038
13.29920645,7.037499905,29.96249962,21.66250038
13.30927447,7.474999905,30.53750038,22.45000076
13.31934536,8.225000381,30.53750038,22.0
13.32941155,9.100000381,30.67500114,21.55000114
13.33947931,10.13749981,30.375,21.39999962
13.34954619,10.71250057,29.625,21.38750076
13.35961041,11.01249981,29.625,21.38750076
13.36967598,11.16250038,29.625,21.23750114
13.37974254,11.3125,29.32500076,20.76250076
13.38980504,12.05000019,29.30000114,20.9375
13.399869,12.625,29.0,21.70000076
13.40993515,12.92500019,28.70000076,21.08749962
13.42000155,12.80000019,28.57500076,20.76250076
13.43006848,13.375,27.97500038,21.0625
13.44013202,13.82499981,27.82500076,21.23750114
13.45019983,13.52500057,27.67500114,21.21249962
13.46026687,13.25,27.38750076,21.36250114
13.47033504,12.21250057,27.38750076,21.66250038
13.48040051,11.33750057,27.26250076,21.5
13.49046858,10.73750019,27.86250114,22.58749962
13.50053405,10.0,28.16250038,23.67500114
13.51060161,8.675000191,27.57500076,23.64999962
13.52066989,7.212500095,28.02499962,23.64999962
13.53073926,5.724999905,28.20000076,24.39999962
13.54080556,4.412499905,27.48750114,24.6875
13.55087249,2.674999952,27.35000038,24.83749962
13.56094036,1.1875,27.52499962,26.20000076
13.57100739,0.01250000019,27.52499962,26.67500114
13.58107843,-1.0,27.08749962,26.80000114
13.59114478,-1.600000024,27.6875,27.73750114
13.60121301,-2.337500095,26.66250038,27.875
13.61127754,-3.5,25.80000114,27.98750114
13.62134447,-5.412499905,26.26250076,27.83749962
13.63141124,-5.837500095,26.11250114,28.28750038
13.6414789,-5.987500191,25.38750076,28.88750076
13.65154718,-7.025000095,25.10000038,29.48750114
13.66161296,-7.474999905,25.6875,29.64999962
13.67167884,-7.325000286,25.83749962,30.125
13.68174312,-7.025000095,25.53750038,30.88750076
13.69180614,-7.325000286,25.25,30.88750076
13.70187213,-7.75,24.95000076,30.72500038
13.71193728,-7.474999905,25.6875,30.73750114
13.72200416,-7.037499905,26.71249962,30.28750038
13.73206827,-7.325000286,26.4375,30.13750076
13.74213426,-7.175000191,25.98750114,30.4375
13.75220322,-7.037499905,26.26250076,30.91250038
13.76226983,-6.887500286,26.41250038,31.22500038
13.77233718,-7.037499905,26.26250076,30.58749962
13.78240364,-7.325000286,26.5625,30.61250114
13.79246707,-7.1875,26.71249962,30.91250038
13.80253233,-6.737500191,27.30000114,30.625
13.81259515,-6.762500286,27.60000038,30.3125
13.82265947,-6.887500286,27.75,29.86250114
13.83272728,-7.1875,27.89999962,29.6875
13.84279369,-7.787499905,28.35000038,30.47500038
13.85286025,-8.675000191,29.10000038,30.01250076
13.8629277,-9.100000381,28.0625,29.07500076
13.87299291,-9.387499809,27.63750076,29.82500076
13.88305911,-9.400000572,28.36250114,30.46249962
13.89312676,-8.675000191,28.0625,30.61250114
13.90319567,-8.650000572,27.46249962,31.07500076
13.91326077,-8.525000572,27.46249962,30.91250038
13.92332551,-8.650000572,26.88750076,31.67500114
13.93339056,-9.237500191,26.73750114,31.97500038
13.94345312,-10.11250019,26.14999962,31.96249962
13.9535139,-10.85000038,25.42500114,32.41250229
13.96357744,-10.41250038,25.72500038,32.5625
13.97364499,-10.85000038,24.83749962,33.77500153
13.98370629,-11.5625,23.8125,34.0625
13.9937715,-11.27500057,23.375,34.0625
14.00383614,-11.6875,22.20000076,34.1875
14.01390004,-11.98750019,22.5,34.51250076
14.02396416,-11.5625,22.5,34.8125
14.0340302,-11.71250057,22.5,34.66250229
14.04409666,-12.01249981,22.92500114,34.51250076
14.05416478,-11.86250019,22.92500114,34.66250229
14.06423041,-10.82499981,22.77499962,34.97500229
14.07429348,-10.22500038,22.17500114,35.125
14.08435905,-10.22500038,21.72500038,35.125
14.09442348,-10.07499981,21.45000076,35.57500076
14.10448671,-9.925000191,21.14999962,35.875
14.11455567,-9.925000191,21.42500114,35.42499924
14.12462098,-9.650000572,21.57500076,35.57500076
14.13468858,-9.350000381,21.72500038,35.60000229
14.14475213,-9.650000572,22.17500114,35.125
14.15482114,-9.212500572,22.76250076,34.67499924
14.16488593,-8.037500381,23.1875,34.54999924
14.17495723,-8.1875,23.625,34.71250153
14.18502489,-7.175000191,24.35000038,34.73749924
14.19508202,-5.712500095,24.48750114,33.8125
14.20514291,-4.675000191,25.21249962,32.91250229
14.21520801,-3.512500048,25.77499962,32.63750076
14.22526968,-2.200000048,26.66250038,32.03750229
14.23533093,-1.925000072,28.125,30.6875
14.24539218,-1.037500024,28.42500114,29.76250076
14.25545598,-0.1625000089,28.70000076,30.08749962
14.26551598,0.275000006,29.58749962,29.33749962
14.27558202,1.300000072,30.45000076,28.28750038
14.28564791,2.3125,31.02499962,27.98750114
14.29571379,3.799999952,30.71249962,28.0
14.30577931,4.974999905,30.11250114,27.83749962
14.31584634,5.5625,30.6875,27.70000076
14.32591265,7.300000191,31.42500114,27.88750076
14.33598004,8.050000191,30.95000076,28.03750038
14.34605124,8.337500572,30.67500114,28.51250076
14.35611588,8.050000191,30.375,29.57500076
14.36617921,7.300000191,30.82500076,30.66250038
14.37624275,7.887500286,30.95000076,31.13750076
14.38630702,8.762499809,30.05000114,31.73750114
14.39637322,9.650000572,30.20000076,31.89999962
14.40643603,10.82499981,30.1875,31.14999962
14.4165026,12.46250057,29.4375,31.14999962
14.42656812,14.07499981,29.5625,31.32500076
14.43663765,15.08750057,29.97500038,31.48750114
14.44670489,15.96250057,29.25,31.78750038
14.45677327,16.71249962,29.22500038,31.33749962
14.46683733,17.45000076,29.375,31.1875
14.47690457,18.625,28.17500114,30.875
14.48697134,19.96249962,27.57500076,30.55000114
14.49703827,20.53750038,27.71249962,31.02499962
14.50710629,20.53750038,27.71249962,30.72500038
14.51717181,21.42500114,27.5625,30.10000038
14.52723588,21.875,27.26250076,29.95000076
14.53729921,21.72500038,27.11250114,30.25
14.5473665,22.60000038,26.8125,29.95000076
14.55743275,23.35000038,26.51250076,29.63750076
14.56750124,23.20000076,26.8125,29.95000076
14.57756723,23.9375,26.0625,29.95000076
14.58763718,23.80000114,25.76250076,29.48750114
14.59770275,23.35000038,25.32500076,29.14999962
14.60777015,23.64999962,25.47500038,28.85000038
14.61783598,23.64999962,26.0625,28.39999962
14.62790395,23.5,25.47500038,28.85000038
14.6379728,23.05000114,25.47500038,29.9375
14.6480402,22.47500038,25.92500114,30.23750114
14.65810786,20.86250114,26.10000038,30.38750076
14.66816926,19.25,26.11250114,30.21249962
14.67823286,18.0625,26.5625,30.6875
14.68829499,16.86250114,27.46249962,31.30000114
14.69835395,15.25,27.63750076,32.375
14.70841515,12.76249981,27.80000114,33.27500153
14.7184801,10.40000057,27.82500076,34.03750229
14.72854348,9.362500191,27.83749962,34.63750076
14.73860692,8.637499809,27.83749962,34.9375
14.74866926,8.050000191,27.86250114,35.26250076
14.75873213,6.587500095,27.72500038,35.86249924
14.76879286,6.287499905,27.875,36.16250229
14.7788578,5.837500095,28.16250038,36.625
14.78892577,4.8125,27.875,37.07500076
14.79899041,4.375,28.02499962,37.22500229
14.80905103,3.924999952,28.625,37.07500076
14.81911426,3.775000095,28.77499962,36.46250153
14.82917634,3.775000095,28.77499962,36.3125
14.83923983,3.200000048,29.22500038,36.01250076
14.84930447,2.900000095,29.67500114,35.86249924
14.85937614,3.049999952,29.67500114,36.32500076
14.86944249,2.600000143,30.125,35.86249924
14.87950437,2.299999952,30.86250114,35.41250229
14.88957176,3.025000095,31.16250038,35.11249924
14.899639,3.475000143,30.98750114,35.11249924
14.90970598,3.325000048,31.01250076,34.63750076
14.91977135,4.0625,31.13750076,34.51250076
14.92983635,4.787499905,31.27499962,34.36249924
14.93990317,4.637500286,32.17499924,34.52500153
14.94996827,4.1875,33.20000076,34.40000153
14.96003551,4.487500191,33.04999924,33.16250229
14.97010233,4.487500191,33.35000229,32.6875
14.98016864,4.325000286,33.78750229,32.86249924
14.99023176,3.737499952,34.23749924,33.17499924
15.000294,2.5625,34.54999924,33.01250076
15.01035775,2.5625,34.54999924,32.38750076
15.02042457,2.712500095,34.70000076,32.53750229
15.03049176,2.125,34.70000076,31.92500114
15.0405589,2.412500143,34.70000076,32.08750153
15.0506253,2.712500095,34.25,32.53750229
15.0606901,2.275000095,34.40000153,32.6875
15.07075858,2.262500048,34.54999924,33.16250229
15.08082786,2.5625,34.10000229,33.77500153
15.09089426,2.275000095,33.79999924,34.54999924
15.10096051,1.675000072,33.52500153,35.46250153
15.11102551,1.675000072,32.63750076,36.51250076
15.12109082,1.25,32.33750153,36.8125
15.13115853,0.5124999881,31.91250038,36.96250153
15.14122666,0.5375000238,30.57500076,37.86249924
15.15129327,0.1000000015,29.85000038,38.46250153
15.1613602,-0.349999994,29.5625,39.6875
15.17142942,-0.6500000358,29.71249962,40.15000153
15.18149999,-0.9250000119,28.98750114,39.83750153
15.19156437,-0.9250000119,28.38750076,39.66250229
15.20163582,-1.075000048,29.5625,39.53750229
15.21170348,-1.524999976,29.86250114,39.38750076
15.22177322,-1.8125,29.73750114,38.75
15.23184213,-2.112499952,29.88750076,38.75
15.24191036,-2.837500095,29.58749962,39.21250153
15.25197926,-1.962499976,29.4375,39.6875
15.26204457,-1.962499976,29.58749962,39.83750153
15.27211072,-2.412500143,29.88750076,39.83750153
15.2821751,-1.962499976,29.73750114,39.83750153
15.29224478,-1.375,29.5625,40.15000153
15.30231364,-1.225000024,29.71249962,39.83750153
15.3123826,-1.075000048,30.01250076,38.91250229
15.32245004,-1.100000024,30.89999962,38.46250153
15.3325215,-1.524999976,31.5,38.16250229
15.34259223,-1.225000024,31.05000114,37.70000076
15.35266233,-0.6500000358,31.05000114,37.40000153
15.36272536,-0.8000000119,31.625,37.10000229
15.37279249,-0.0625,32.21250153,36.96250153
15.3828578,0.8125,32.51250076,36.04999924
15.39292567,1.975000024,33.375,34.67499924
15.40299374,2.712500095,34.6875,33.625
15.41306254,3.137500048,35.13750076,33.02500153
15.42313374,4.599999905,35.71250153,31.33749962
15.43319827,5.050000191,36.72500229,29.52499962
15.44326556,5.912499905,37.17499924,28.45000076
15.45333181,7.825000286,37.58750153,27.55000114
15.46339999,8.125,37.58750153,26.3125
15.47346952,8.725000381,37.4375,25.39999962
15.48353812,9.612500191,37.875,24.47500038
15.4936114,9.587500572,38.17499924,23.71249962
15.50367562,10.32499981,38.90000153,23.11250114
15.51374161,11.19999981,39.1875,22.51250076
15.52381171,11.65000057,38.88750076,21.72500038
15.53388358,12.6875,39.16250229,21.28750038
15.54395197,13.11250019,39.01250076,20.67500114
15.55402447,13.13749981,38.88750076,19.26250076
15.56409192,14.3125,38.71250153,18.66250038
15.57416218,15.32499981,38.41250229,18.96249962
15.58423025,15.91250038,39.15000153,18.98750114
15.59430228,16.36250114,38.97500229,19.45000076
15.60437296,16.21249962,38.25,19.60000038
15.61444473,16.21249962,38.40000153,20.22500038
15.62451504,16.66250038,38.10000229,21.28750038
15.6345826,16.51250076,38.10000229,21.61250114
15.64465249,16.9375,38.22500229,21.76250076
15.65472286,17.38750076,37.35000229,21.13750076
15.66479161,17.6875,37.04999924,20.52499962
15.6748628,18.13750076,37.20000076,20.52499962
15.68493228,18.125,37.5,20.22500038
15.6950039,17.98750114,37.35000229,19.75
15.70507358,18.28750038,37.20000076,19.75
15.71514541,18.875,37.17499924,19.75
15.72521832,18.875,37.47500229,19.92500114
15.73529108,18.42500114,37.35000229,20.22500038
15.7453602,18.875,37.47500229,19.75
15.75542864,18.875,37.47500229,19.75
15.76550233,18.72500038,37.04999924,20.375
15.77557442,18.57500076,37.04999924,20.67500114
15.78564442,18.13750076,37.04999924,20.35000038
15.79571213,18.27499962,37.5,19.75
15.80578442,17.83749962,37.35000229,20.52499962
15.81585629,16.8125,37.35000229,20.82500076
15.82592244,15.92500019,37.51250076,19.88750076
15.83598879,14.90000057,37.8125,20.1875
15.84605822,14.44999981,38.11249924,20.97500038
15.85612895,14.15000057,38.5625,20.97500038
15.86620072,13.41250038,38.71250153,20.5
15.87627364,12.53750038,39.03750229,20.03750038
15.88634546,12.23750019,39.33750153,19.88750076
15.89641525,11.94999981,38.88750076,19.26250076
15.90648306,10.77500057,39.35000229,18.64999962
15.91655577,9.587500572,40.25,18.80000114
15.92662765,9.162500381,40.54999924,18.35000038
15.93669832,8.712500572,40.70000076,17.875
15.94676405,8.574999809,39.82500076,18.3125
15.95683332,7.974999905,40.27500153,19.25
15.96690353,7.25,40.70000076,19.71249962
15.97697197,7.25,40.27500153,19.71249962
15.98704562,6.950000286,39.53750229,20.46249962
15.99711754,6.362500191,39.23749924,21.85000038
16.0071865,6.349999905,40.125,23.08749962
16.01725681,6.0625,40.125,23.71249962
16.02732687,5.487500191,39.23749924,24.16250038
16.03739786,5.487500191,38.66250229,23.67500114
16.0474701,6.212500095,38.9375,23.53750038
16.0575415,7.525000095,39.52500153,23.5625
16.06761155,7.400000095,39.22500229,23.41250038
16.0776851,6.950000286,38.63750076,24.3125
16.08775364,7.112500191,37.91250229,24.13750076
16.09782916,7.849999905,37.61249924,23.98750114
16.10789843,8.125,38.625,23.86250114
16.11797015,8.5625,39.07500076,23.41250038
16.12804098,9.462500572,38.32500076,22.17500114
16.13811296,9.612500191,38.17499924,21.23750114
16.14818478,9.912500381,38.32500076,20.3125
16.15825676,10.48750019,37.875,19.22500038
16.16832926,11.08750057,38.45000076,18.16250038
16.1784027,11.08750057,38.60000229,16.77499962
16.18847317,11.23750019,38.47500229,15.53750038
16.19854343,11.08750057,39.20000076,14.3125
16.2086152,11.53750038,39.04999924,13.22500038
16.21868239,12.125,38.75,11.83750057
16.22875452,12.57499981,38.60000229,11.22500038
16.23882108,13.15000057,38.75,10.60000038
16.24888817,13.17500019,38.60000229,9.837500572
16.25895515,12.88749981,38.02500153,8.900000572
16.26902108,12.73750019,38.47500229,8.574999809
16.27909046,13.02500057,38.60000229,9.362500191
16.28915702,12.88749981,37.72500229,9.962500572
16.29922384,12.4375,38.02500153,10.58750057
16.30928931,12.13749981,38.75,11.375
16.31935483,11.97500038,38.90000153,12.13749981
16.32942192,11.38749981,39.20000076,12.76249981
16.33949036,10.36250019,39.22500229,12.61250019
16.3495589,10.22500038,38.92499924,12.125
16.35962879,10.51249981,39.07500076,11.67500019
16.36969926,10.96250057,38.92499924,11.97500038
16.37977369,10.36250019,39.07500076,12.4375
16.38984478,9.475000381,39.52500153,12.13749981
16.39991457,9.050000191,39.52500153,12.4375
16.40998494,8.449999809,39.53750229,13.82499981
16.42005468,8.300000191,39.53750229,14.60000038
16.43012416,7.5625,39.23749924,15.51249981
16.44019275,6.6875,39.26250076,16.28750038
16.45025791,6.387500286,39.53750229,17.52499962
16.4603239,5.787499905,39.26250076,18.58749962
16.47038983,5.200000286,38.67499924,19.1875
16.48045749,4.925000191,38.52500153,20.27499962
16.49052431,4.775000095,38.375,21.35000038
16.50058671,4.599999905,38.375,22.89999962
16.51065515,4.175000191,37.79999924,23.64999962
16.52072317,3.887500048,37.0625,24.10000038
16.53078942,4.175000191,37.20000076,23.95000076
16.54085697,3.4375,37.95000076,23.03750038
16.55092119,2.987499952,38.54999924,22.41250038
16.56098817,4.025000095,38.52500153,21.96249962
16.57105468,4.474999905,37.79999924,21.5
16.58112197,4.775000095,37.65000153,21.5
16.59118645,4.900000095,38.375,21.05000114
16.60125338,4.75,38.97500229,20.57500076
16.61131895,5.200000286,38.96250153,20.27499962
16.62138832,6.387500286,38.22500229,19.36250114
16.63145218,6.537499905,37.92499924,18.88750076
16.64151551,7.112500191,38.66250229,18.58749962
16.65158134,8.150000572,38.78750229,17.98750114
16.66164791,7.849999905,38.9375,17.20000076
16.6717141,7.862500191,38.51250076,17.05000114
16.68178124,8.900000572,38.48749924,16.28750038
16.69184697,10.36250019,38.32500076,15.36250019
16.70191608,11.6875,38.02500153,14.30000019
16.7119852,12.875,38.0,14.30000019
16.72205207,14.1875,38.13750076,13.22500038
16.73211994,15.0625,37.98749924,12.01249981
16.74218567,16.11250114,37.08750153,11.22500038
16.75225181,17.60000038,36.1875,10.75
16.76231916,19.48750114,36.01250076,10.60000038
16.7723841,20.67500114,36.60000229,10.32499981
16.78244707,22.28750038,36.15000153,9.875
16.79251176,23.46249962,35.40000153,9.400000572
16.80257874,23.76250076,34.95000076,8.762499809
16.81264567,24.95000076,34.35000229,8.150000572
16.82271416,26.125,34.32500076,7.849999905
16.83277853,27.16250038,34.17499924,8.012499809
16.84284233,27.58749962,34.01250076,8.787500381
16.85291015,27.58749962,33.875,8.637499809
16.8629777,28.33749962,33.27500153,8.3125
16.87304478,29.375,33.26250076,8.787500381
16.88311249,29.80000114,33.53750229,9.574999809
16.89317864,29.95000076,33.53750229,9.425000191
16.9032476,30.53750038,33.11249924,8.637499809
16.9133127,30.98750114,32.8125,8.337500572
16.92338041,30.98750114,32.9375,7.712500095
16.93344421,30.98750114,33.23749924,6.800000191
16.94351145,31.28750038,33.38750076,5.875
16.95357681,31.4375,32.9375,6.025000095
16.96364301,30.70000076,32.96250153,5.237500191
16.97371036,30.6875,34.13750076,5.262500286
16.98377749,31.11250114,34.57500076,6.050000191
16.99384853,31.11250114,34.57500076,6.050000191
17.00391603,30.83749962,34.13750076,6.200000286
17.0139864,30.98750114,33.83750153,7.262500286
17.02405114,30.8125,34.57500076,7.900000095
17.03411832,30.8125,34.875,8.525000572
17.04418608,30.8125,34.72500229,8.837500572
17.05425952,30.36250114,35.29999924,9.462500572
17.06432634,29.48750114,35.625,9.762499809
17.0743939,28.60000038,35.625,9.912500381
17.08446332,29.1875,35.625,10.85000038
17.09453176,30.0625,35.90000153,12.25
17.10459702,28.58749962,37.08750153,12.10000038
17.11466858,27.25,37.40000153,12.25
17.12473515,27.25,37.83750153,12.88749981
17.1348039,26.64999962,38.28750229,13.03750038
17.14487098,26.5,38.58750153,13.03750038
17.15493744,26.07500076,38.4375,13.96250057
17.16500114,25.33749962,38.45000076,14.42500019
17.1750666,25.77499962,38.58750153,14.57499981
17.1851265,25.625,38.73749924,15.19999981
17.19519374,26.20000076,39.01250076,15.98750019
17.20525838,26.78750038,38.5625,16.92500114
17.21532806,26.64999962,38.13750076,17.67500114
17.22539239,27.96249962,37.8125,18.46249962
17.23546166,29.0,37.51250076,19.375
17.24552791,29.14999962,36.91250229,20.14999962
17.25559671,30.02499962,36.16250229,20.30000114
17.26566197,30.32500076,36.46250153,20.61250114
17.27572447,30.46249962,36.75,21.39999962
17.28578775,31.63750076,36.875,21.25
17.29585457,31.77499962,37.17499924,20.1875
17.30592249,31.63750076,37.02500153,20.16250038
17.31598957,32.07500076,37.32500076,19.71249962
17.326059,32.375,37.17499924,18.64999962
17.33612796,32.375,37.625,17.5625
17.34619489,32.67499924,37.91250229,16.48750114
17.35626124,32.67499924,38.0625,15.40000057
17.36633343,32.82500076,38.51250076,14.65000057
17.37639957,33.10000229,38.51250076,13.41250038
17.3864652,33.10000229,38.51250076,13.41250038
17.39653015,33.40000153,38.36249924,12.80000019
17.40659869,33.70000076,38.21250153,11.86250019
17.41666754,33.85000229,37.91250229,11.38749981
17.42673338,33.57500076,38.21250153,10.15000057
17.43679905,33.72500229,38.36249924,9.699999809
17.44686619,34.0,37.91250229,9.850000381
17.45693426,34.15000153,37.91250229,9.537500381
17.46700416,34.88750076,38.21250153,9.550000191
17.47707088,34.45000076,38.51250076,9.400000572
17.48713681,34.15000153,38.0625,8.9375
17.49720431,34.47500229,37.02500153,8.912500381
17.50727056,34.29999924,37.91250229,9.237500191
17.5173315,33.70000076,38.9375,10.96250057
17.5273966,33.70000076,38.36249924,12.17500019
17.53746478,33.42499924,38.21250153,12.01249981
17.54753015,32.52500153,38.66250229,13.41250038
17.55760103,31.77499962,39.11249924,14.80000019
17.56766744,31.03750038,39.11249924,15.10000038
17.57773926,30.91250038,38.67499924,15.55000019
17.58780603,30.16250038,38.67499924,16.17500114
17.59786957,29.41250038,40.01250076,16.33749962
17.60793411,29.41250038,40.76250076,16.36250114
17.61799567,29.26250076,41.1875,16.67500114
17.62806062,28.8125,41.1875,17.125
17.63812629,27.92500114,41.21250153,17.45000076
17.64818707,27.64999962,41.36249924,17.75
17.65825072,27.47500038,41.9375,18.0625
17.6683166,27.02499962,42.23749924,19.14999962
17.67837952,26.45000076,41.8125,20.52499962
17.68844858,25.5625,42.11249924,20.375
17.69851713,25.11250114,41.82500076,22.0625
17.7085826,25.11250114,41.96250153,23.91250038
17.7186515,25.11250114,41.96250153,24.85000038
17.72871457,25.39999962,41.96250153,25.9375
17.73878202,24.36250114,42.41250229,27.47500038
17.74884624,23.91250038,42.11249924,28.39999962
17.7589128,23.48750114,41.67499924,28.85000038
17.76898098,22.60000038,41.67499924,30.85000038
17.77904911,22.30000114,42.27500153,32.26250076
17.78911786,21.85000038,41.97500229,32.41250229
17.79918801,21.27499962,41.40000153,32.22500229
17.80925723,20.6875,41.70000076,33.16250229
17.8193277,21.27499962,41.97500229,32.71250153
17.82939525,21.42500114,42.125,31.625
17.83946541,21.85000038,41.97500229,31.32500076
17.84953457,22.73750114,42.5625,30.39999962
17.85960473,23.48750114,42.26250076,29.01250076
17.86967249,24.66250038,41.66250229,27.77499962
17.87973864,25.97500038,42.23749924,26.875
17.88980499,27.46249962,41.92499924,26.875
17.89987077,28.63750076,40.875,27.80000114
17.90993869,29.22500038,40.72500229,28.58749962
17.92000801,29.95000076,39.97500229,29.1875
17.93007676,30.85000038,38.78750229,29.48750114
17.94014515,31.88750076,38.625,30.25
17.95020874,32.61249924,38.47500229,31.1875
17.96027135,32.91250229,38.02500153,31.48750114
17.97033937,32.91250229,37.13750076,31.17500114
17.9804078,33.65000153,36.38750076,31.9375
17.99047489,34.54999924,35.48749924,32.6875
18.00054364,34.54999924,35.9375,32.5625
18.01060697,34.67499924,35.9375,32.5625
18.02066895,33.8125,35.36249924,32.98749924
18.03073489,33.8125,35.36249924,33.46250153
18.04080108,34.97500229,35.63750076,33.625
18.05086713,35.125,35.63750076,33.01250076
18.0609341,36.16250229,35.47500229,33.02500153
18.07099832,36.4375,35.625,32.875
18.08106041,36.58750153,35.625,32.11249924
18.09112494,36.91250229,34.58750153,32.23749924
18.10118957,36.88750076,34.73749924,32.86249924
18.11124791,36.73749924,35.17499924,33.65000153
18.12131213,36.58750153,35.17499924,33.95000076
18.13138119,37.03750229,35.32500076,33.5
18.14144963,36.4375,35.02500153,34.25
18.15151655,36.3125,34.88750076,35.01250076
18.16157869,36.16250229,34.88750076,35.33750153
18.17164411,36.16250229,34.875,35.95000076
18.18170963,36.73749924,34.72500229,36.72500229
18.19177369,36.3125,33.98749924,37.02500153
18.20183437,35.5625,34.13750076,37.17499924
18.21189442,35.125,34.88750076,37.02500153
18.22195687,34.52500153,34.88750076,37.78750229
18.23202317,33.79999924,35.1875,39.32500076
18.24208937,33.35000229,35.33750153,40.11249924
18.25215244,32.16250229,35.21250153,40.40000153
18.26221791,31.28750038,35.51250076,40.10000229
18.2722853,30.83749962,36.11249924,40.10000229
18.28235322,29.375,36.71250153,40.41250229
18.29241671,28.33749962,37.02500153,40.40000153
18.30248197,27.73750114,37.47500229,40.71250153
18.31254567,26.86250114,37.77500153,41.03750229
18.32260994,26.27499962,37.625,41.63750076
18.33267473,25.67500114,37.79999924,41.48749924
18.34273869,24.95000076,38.375,41.63750076
18.35280562,25.22500038,38.22500229,41.95000076
18.36287135,25.22500038,38.22500229,42.25
18.37293681,24.35000038,37.95000076,43.32500076
18.38300384,24.21249962,37.5,44.38750076
18.39306895,24.21249962,37.36249924,45.01250076
18.4031289,23.61250114,37.21250153,45.92499924
18.41319364,23.03750038,36.78750229,47.0
18.42326072,22.60000038,36.1875,47.76250076
18.43332895,22.60000038,36.03750229,48.21250153
18.44339666,23.33749962,35.73749924,48.53750229
18.45345905,24.36250114,35.58750153,48.6875
18.4635226,24.95000076,35.13750076,48.38750076
18.47358739,24.66250038,33.95000076,48.66250229
18.48365395,24.96249962,33.65000153,49.13750076
18.49372129,25.55000114,34.08750153,49.92499924
18.50378744,24.8125,33.95000076,50.22500229
18.5138503,23.63750076,34.10000229,50.04999924
18.52391327,23.63750076,34.40000153,50.04999924
18.53397702,23.63750076,34.54999924,50.04999924
18.54404155,23.48750114,34.70000076,49.13750076
18.55409968,23.63750076,35.0,48.0625
18.56416384,24.36250114,35.28750229,47.45000076
18.57423223,24.0625,36.1875,46.70000076
18.58429963,24.05000114,37.5,46.71250153
18.5943677,23.76250076,38.10000229,45.79999924
18.60443364,22.88750076,38.40000153,43.9375
18.61450254,22.4375,39.0,43.02500153
18.62456775,22.13750076,39.90000153,42.42499924
18.63463546,22.5625,40.77500153,41.67499924
18.64470291,23.14999962,41.66250229,40.28750229
18.65477442,23.30000114,42.08750153,39.53750229
18.66483822,23.60000038,42.67499924,38.76250076
18.67490692,23.30000114,42.98749924,37.70000076
18.68497572,23.30000114,42.98749924,36.76250076
18.69504452,23.60000038,43.125,36.3125
18.70511223,22.71249962,43.13750076,36.76250076
18.7151777,22.11250114,43.4375,37.85000229
18.72524041,21.66250038,43.13750076,39.6875
18.73530858,20.5,43.16250229,40.60000229
18.74537213,19.17500114,43.3125,41.6875
18.7554352,17.6875,43.17499924,43.52500153
18.76549957,16.66250038,43.20000076,45.0625
18.77556296,15.5,42.46250153,46.73749924
18.78562598,14.1875,41.29999924,48.08750153
18.79569062,13.15000057,41.0,49.47500229
18.80575416,12.125,40.42499924,50.98749924
18.81581817,10.96250057,39.41250229,52.51250076
18.82587812,10.375,38.22500229,54.17499924
18.83594176,10.375,37.04999924,56.01250076
18.84600489,10.52500057,35.4375,57.53750229
18.85607213,10.69999981,33.65000153,58.28750229
18.86613421,11.0,33.20000076,57.65000153
18.87619655,11.57499981,34.53750229,56.60000229
18.88625843,12.73750019,35.54999924,55.86249924
18.89632124,13.47500038,35.82500076,55.5625
18.906379,12.73750019,36.0,55.86249924
18.91644275,11.71250057,35.26250076,56.0
18.9265064,9.8125,34.70000076,56.27500153
18.93657134,9.237500191,34.25,57.8125
18.94663707,9.362500191,34.10000229,58.11249924
18.95670275,9.237500191,34.40000153,57.5
18.96676963,9.650000572,35.4375,57.36249924
18.97683635,9.5,36.3125,57.38750076
18.98689983,8.612500191,36.03750229,56.91250229
18.99696244,8.487500191,35.60000229,55.82500076
19.00702848,8.1875,35.60000229,56.27500153
19.0170951,8.487500191,35.45000076,56.60000229
19.0271626,8.487500191,35.60000229,55.97500229
19.0372266,9.0625,36.03750229,55.52500153
19.04728942,10.25,36.76250076,55.07500076
19.05735723,10.97500038,37.20000076,53.71250153
19.0674177,12.73750019,37.625,52.48749924
19.07748056,14.63749981,38.33750153,52.0625
19.08754629,16.10000038,38.625,50.22500229
19.09761129,17.72500038,38.90000153,48.53750229
19.10766921,20.375,39.16250229,48.27500153
19.117734,21.6875,39.45000076,47.03750229
19.12779562,22.41250038,39.72500229,45.04999924
19.13785838,22.86250114,39.72500229,44.27500153
19.14792249,23.46249962,39.42499924,42.88750076
19.15798926,25.36250114,39.86249924,41.97500229
19.16805207,25.96249962,39.83750153,41.375
19.17811687,26.26250076,39.6875,41.375
19.18818468,27.72500038,39.67499924,41.22500229
19.1982489,28.60000038,39.67499924,40.77500153
19.20831244,29.48750114,39.65000153,40.77500153
19.21837739,31.25,39.20000076,39.23749924
19.22844348,32.45000076,38.45000076,38.0
19.23850598,32.90000153,37.57500076,37.82500076
19.24856718,32.90000153,37.27500153,38.125
19.25863124,32.75,37.27500153,39.0625
19.26869379,32.75,36.53750229,39.51250076
19.27876108,32.46250153,35.51250076,39.79999924
19.28883046,32.3125,34.91250229,40.10000229
19.29889702,33.35000229,34.46250153,40.10000229
19.30896093,34.82500076,33.5625,39.16250229
19.31902437,35.42499924,33.11249924,38.53750229
19.32908645,36.02500153,32.52500153,37.13750076
19.33915166,37.0625,31.47500038,35.90000153
19.34921494,38.38750076,31.17500114,35.42499924
19.35927733,38.6875,30.14999962,34.78750229
19.36934202,39.28750229,29.55000114,34.48749924
19.37940702,39.875,29.82500076,33.875
19.38946812,40.17499924,29.39999962,32.78750229
19.39953036,40.63750076,28.36250114,32.15000153
19.40959431,41.07500076,27.91250038,32.0
19.41965504,41.52500153,28.20000076,30.92500114
19.4297203,41.375,28.0625,30.46249962
19.43978692,40.9375,27.91250038,30.28750038
19.44984848,40.78750229,28.36250114,30.28750038
19.4599089,40.78750229,28.51250076,30.3125
19.46997608,40.0625,28.51250076,30.4375
19.48004098,39.46250153,28.8125,30.61250114
19.49010983,38.0,29.28750038,29.82500076
19.5001803,36.8125,30.03750038,29.52499962
19.51024431,36.21250153,30.91250038,30.3125
19.52030874,35.1875,31.36250114,30.46249962
19.53037364,33.85000229,31.6875,31.22500038
19.54043697,32.375,32.4375,33.23749924
19.55049937,30.46249962,32.60000229,34.77500153
19.56056296,28.67500114,32.90000153,36.3125
19.57062723,26.61250114,33.52500153,38.16250229
19.58069213,24.85000038,33.97500229,39.70000076
19.5907552,23.67500114,34.42499924,40.32500076
19.60081879,22.1875,35.1875,40.77500153
19.61088348,20.86250114,35.48749924,41.08750153
19.6209451,21.01250076,35.1875,41.23749924
19.6310089,21.3125,35.63750076,41.08750153
19.64107051,19.97500038,35.9375,40.0
19.65113384,19.85000038,36.08750153,39.38750076
19.66119926,19.97500038,36.53750229,39.54999924
19.67126353,19.67500114,37.42499924,39.54999924
19.68132713,19.07500076,38.32500076,38.95000076
19.69139473,18.5,38.47500229,38.01250076
19.70146161,18.5,38.02500153,37.71250153
19.71152718,18.20000076,38.92499924,36.95000076
19.72159312,18.05000114,40.40000153,36.04999924
19.73165942,18.35000038,40.6875,35.42499924
19.74172353,17.75,40.54999924,34.66250229
19.75178666,17.60000038,41.4375,34.0625
19.76184796,18.625,41.71250153,33.28750229
19.77191072,18.625,41.86249924,32.83750153
19.78197379,18.17500114,42.16250229,32.375
19.79203306,17.89999962,42.61249924,31.92500114
19.80209588,18.02499962,42.91250229,30.98750114
19.81215431,17.75,42.76250076,30.6875
19.82221395,17.16250038,42.91250229,30.36250114
19.83227707,17.14999962,43.51250076,30.38750076
19.84234322,16.26250076,43.8125,30.98750114
19.85240806,15.83750057,43.53750229,31.13750076
19.8624714,15.83750057,43.08750153,31.28750038
19.8725353,15.40000057,42.65000153,32.04999924
19.88259791,15.25,42.20000076,32.5
19.89266145,15.25,41.75,33.57500076
19.90273077,14.22500038,41.03750229,34.63750076
19.9127952,13.33750057,41.03750229,35.86249924
19.92285931,13.33750057,41.1875,37.5625
19.93292614,12.76249981,40.01250076,37.375
19.94299286,12.05000019,38.40000153,38.125
19.9530553,11.46250057,37.51250076,39.17499924
19.96312103,10.58750057,37.6875,39.65000153
19.97318666,9.125,36.95000076,40.375
19.98324879,8.387499809,36.22500229,41.29999924
19.99331025,8.675000191,36.07500076,41.91250229
20.00337437,8.975000381,36.07500076,42.0625
20.01343822,8.537500381,35.78750229,41.75
20.02350197,8.237500191,35.63750076,41.27500153
20.03356957,8.675000191,35.77500153,41.75
20.0436314,8.675000191,35.92499924,41.75
20.05369244,9.125,35.92499924,40.97500229
20.06375645,9.850000381,35.47500229,40.36249924
20.07382135,9.275000572,35.625,40.0625
20.08388437,9.275000572,35.77500153,39.73749924
20.0939476,9.574999809,35.77500153,39.28750229
20.10400858,9.125,36.82500076,37.90000153
20.11406921,9.574999809,36.67499924,37.13750076
20.1241328,10.02500057,35.77500153,37.11249924
20.13420088,9.875,36.22500229,36.96250153
20.14426562,9.850000381,37.10000229,36.21250153
20.15432812,9.699999809,38.28750229,34.85000229
20.16439181,10.30000019,38.4375,33.3125
20.17445515,10.44999981,38.28750229,32.07500076
20.18451848,10.30000019,39.03750229,31.0
20.1945826,10.0,39.63750076,29.14999962
20.20464645,10.30000019,39.48749924,27.46249962
20.21471593,11.33750057,39.03750229,26.98750114
20.22477786,11.33750057,39.61249924,26.22500038
20.23483728,11.48750019,40.35000229,24.85000038
20.24489957,12.21250057,40.35000229,22.70000076
20.25496791,13.25,40.65000153,21.01250076
20.26502963,13.26249981,40.5,20.38750076
20.27509437,13.69999981,39.75,20.07500076
20.28515832,14.875,39.45000076,18.98750114
20.29522556,15.02500057,39.90000153,18.0625
20.30528806,15.625,39.72500229,18.38750076
20.31535124,16.21249962,39.0,18.36250114
20.32541822,16.21249962,38.70000076,19.13750076
20.33548494,16.21249962,38.54999924,20.07500076
20.34554994,16.36250114,37.51250076,20.82500076
20.35561671,17.53750038,37.20000076,21.4375
20.36568332,18.125,37.92499924,21.16250038
20.37574739,18.42500114,37.47500229,20.07500076
20.38581134,19.60000038,37.02500153,19.13750076
20.39587775,20.33749962,36.875,19.45000076
20.40594572,20.78750038,36.125,20.05000114
20.41601166,21.8125,35.67499924,19.13750076
20.42607536,22.5625,35.22500229,18.20000076
20.43614166,23.45000076,34.77500153,18.20000076
20.4462065,24.47500038,34.47500229,17.57500076
20.45627457,25.375,34.02500153,16.66250038
20.46634233,25.8125,33.875,16.66250038
20.47640921,26.11250114,33.42499924,16.66250038
20.48647483,26.41250038,32.97500229,16.63750076
20.4965428,26.71249962,32.82500076,15.875
20.50660942,27.3125,31.95000076,15.55000019
20.51667244,28.48750114,31.5,15.08750057
20.52673629,29.07500076,31.625,14.63749981
20.53680181,29.95000076,31.625,14.63749981
20.54686588,30.98750114,31.02499962,14.01249981
20.55693192,30.85000038,30.0,13.375
20.56700082,30.85000038,29.70000076,12.91250038
20.57706395,31.0,30.14999962,13.07499981
20.58712786,31.14999962,29.85000038,13.69999981
20.5971914,31.30000114,29.39999962,14.30000019
20.60725806,31.13750076,29.82500076,15.08750057
20.61732103,30.98750114,30.125,16.17500114
20.6273827,30.10000038,30.57500076,17.08749962
20.63744312,28.92500114,30.89999962,17.41250038
20.64750416,27.58749962,31.35000038,18.625
20.65756343,25.8125,32.40000153,19.10000038
20.66762416,24.05000114,33.29999924,20.33749962
20.67768775,22.41250038,33.90000153,21.42500114
20.68774874,21.08749962,34.21250153,22.48750114
20.69781301,20.05000114,34.66250229,23.27499962
20.7078739,18.73750114,34.8125,23.875
20.71793707,17.11250114,34.6875,24.64999962
20.72800275,15.94999981,35.0,24.625
20.73807181,15.5,35.73749924,25.5625
20.74814062,14.44999981,36.1875,26.1875
20.75820369,12.40000057,36.22500229,25.86250114
20.76826963,11.52500057,36.22500229,25.39999962
20.77833749,10.48750019,36.97500229,25.55000114
20.78840072,9.3125,37.57500076,25.86250114
20.7984626,7.849999905,37.58750153,25.55000114
20.80852645,6.950000286,38.03750229,25.70000076
20.81859192,6.662499905,37.46250153,25.82500076
20.82865364,5.787499905,37.625,25.82500076
20.8387202,4.900000095,38.22500229,26.14999962
20.84878817,4.025000095,38.52500153,25.82500076
20.85885218,3.725000143,38.52500153,25.21249962
20.86891775,3.424999952,38.40000153,24.88750076
20.87897963,2.6875,38.85000229,24.58749962
20.88904155,2.262500048,39.15000153,24.125
20.89910707,1.962499976,38.85000229,24.125
20.9091728,1.512500048,39.60000229,23.82500076
20.91923572,1.212499976,39.90000153,23.67500114
20.92930041,0.7750000358,39.01250076,23.48750114
20.93936603,-0.237499997,39.16250229,23.80000114
20.94942916,-0.1000000015,39.16250229,24.25
20.9594953,-0.3875000179,38.88750076,23.9375
20.96956062,-1.5625,38.60000229,24.23750114
20.97962322,-1.412500024,38.73749924,24.55000114
20.98968765,-1.262500048,39.1875,23.9375
20.99975093,-0.8375000358,38.73749924,24.08749962
21.00981384,-0.6875,38.88750076,24.70000076
21.01987848,-0.25,39.01250076,24.72500038
21.02994489,0.200000003,39.16250229,24.875
21.04000963,0.474999994,39.60000229,25.21249962
21.05007765,0.200000003,39.01250076,25.33749962
21.06014218,-0.237499997,38.13750076,25.47500038
21.07020244,0.0625,37.40000153,25.625
21.08026921,0.212500006,37.38750076,26.08749962
21.09033374,0.200000003,38.13750076,26.875
21.10039457,0.05000000075,37.6875,27.80000114
21.11045619,-0.5375000238,37.25,28.07500076
21.12051937,-0.5375000238,37.10000229,28.22500038
21.13058395,-0.8125,36.52500153,28.67500114
21.14065244,-1.262500048,36.82500076,29.14999962
21.15071655,-2.150000095,37.125,29.14999962
21.16078036,-2.299999952,36.67499924,28.97500038
21.17084384,-1.399999976,36.22500229,28.52499962
21.18091088,-1.700000048,36.23749924,27.27499962
21.19097614,-1.700000048,36.52500153,26.82500076
21.20104067,-0.9625000358,36.22500229,27.4375
21.21110989,-0.8125,35.92499924,28.0625
21.22117489,-0.8125,36.07500076,27.4375
21.23124207,-0.3625000119,36.07500076,26.97500038
21.24130577,-0.0625,35.625,27.4375
21.25136853,0.212500006,35.625,26.67500114
21.26143233,0.6625000238,35.92499924,25.89999962
21.2714965,2.125,35.75,26.22500038
21.28155911,3.612499952,35.28750229,25.60000038
21.29162332,4.212500095,34.85000229,24.83749962
21.30168916,4.637500286,34.98749924,24.0625
21.31175786,5.825000286,35.5625,22.85000038
21.32182374,6.700000286,35.5625,22.07500076
21.3318889,7.0,34.96250153,21.13750076
21.34195468,7.737500191,34.8125,20.22500038
21.35201718,8.612500191,35.10000229,19.77499962
21.3620828,9.212500572,34.21250153,18.21249962
21.3721489,9.662500381,33.33750153,16.96249962
21.38221572,10.69999981,33.76250076,16.36250114
21.39227562,12.02500057,33.75,15.61250019
21.40233853,13.21250057,33.15000153,15.4375
21.41240124,13.33750057,33.27500153,15.61250019
21.42246296,12.91250038,33.0,15.28750038
21.4325303,13.21250057,32.11249924,15.73750019
21.44259603,14.38749981,32.10000229,16.67500114
21.45265697,15.27500057,31.92500114,16.375
21.46271999,16.30000114,31.625,15.91250038
21.47278332,17.1875,31.47500038,15.46250057
21.48284952,18.0625,31.02499962,14.98750019
21.49291062,19.25,30.71249962,14.98750019
21.50297223,19.82500076,30.71249962,14.375
21.51303931,20.57500076,29.67500114,14.19999981
21.52310239,21.02499962,29.22500038,14.35000038
21.5331677,21.46249962,29.07500076,13.58750057
21.54323103,22.51250076,28.32500076,13.11250019
21.55329426,22.8125,27.875,12.5
21.56335942,22.66250038,28.02499962,12.17500019
21.5734215,23.98750114,27.42500114,12.35000038
21.58348978,24.28750038,26.55000114,11.38749981
21.59355379,24.73750114,26.39999962,10.77500057
21.60361733,26.20000076,25.77499962,10.625
21.61368171,25.77499962,25.05000114,10.60000038
21.62374442,25.33749962,24.61250114,10.28750038
21.63380483,25.48750114,24.46249962,9.8125
21.64386864,25.48750114,23.73750114,9.962500572
21.65393114,25.63750076,23.4375,10.11250019
21.66399567,26.08749962,23.5625,10.73750019
21.67405504,26.08749962,23.13750076,11.03750038
21.68411437,25.9375,22.6875,11.03750038
21.69417989,26.08749962,22.53750038,10.71250057
21.70423858,25.63750076,22.83749962,11.1875
21.71430207,25.63750076,23.13750076,11.80000019
21.72436733,25.63750076,22.83749962,12.27500057
21.73442963,24.61250114,23.14999962,13.33750057
21.74449468,23.57500076,23.30000114,14.26249981
21.75455822,22.70000076,23.45000076,14.875
21.76462562,21.21249962,24.05000114,16.26250076
21.77469525,19.75,23.92500114,17.48750114
21.7847578,18.70000076,24.375,18.88750076
21.79482098,17.375,25.27499962,19.36250114
21.80488577,16.78750038,25.13750076,19.33749962
21.81495254,15.91250038,25.13750076,20.26250076
21.82501327,14.72500038,25.58749962,20.57500076
21.83508056,13.40000057,26.48750114,21.20000076
21.84514343,12.21250057,27.23750114,21.51250076
21.85520791,11.78750038,27.11250114,21.5
21.86527254,11.33750057,27.5625,21.51250076
21.8753389,11.3125,28.13750076,21.36250114
21.88540707,10.88749981,28.13750076,21.21249962
21.89547134,9.850000381,28.61250114,21.51250076
21.90553593,8.975000381,28.76250076,20.57500076
21.91560129,7.362500191,29.375,19.96249962
21.92566588,6.325000286,29.82500076,20.27499962
21.93573483,6.462500095,30.11250114,19.96249962
21.94580572,6.462500095,30.5625,19.82500076
21.95587447,5.724999905,30.86250114,19.36250114
21.96594405,5.450000286,30.57500076,19.1875
21.97601843,5.275000095,30.86250114,19.36250114
21.98608072,4.974999905,31.91250038,19.21249962
21.99614754,4.849999905,31.61250114,19.36250114
22.00621286,4.550000191,31.61250114,19.21249962
22.01628619,3.950000048,32.0625,19.67500114
22.02634421,3.362499952,32.51250076,19.36250114
22.03641082,2.912500143,32.8125,19.0625
22.04647744,2.487499952,32.67499924,19.0625
22.05654515,2.637500048,32.375,19.36250114
22.06660603,2.912500143,32.51250076,19.36250114
22.07667348,2.637500048,32.375,18.88750076
22.08674244,2.1875,32.22500229,19.1875
22.09680999,2.037500143,32.52500153,19.97500038
22.10687478,1.887500048,32.52500153,20.125
22.11693801,1.75,32.52500153,19.97500038
22.12700171,1.149999976,32.67499924,19.97500038
22.13706291,0.7250000238,32.25,20.26250076
22.1471251,1.024999976,31.64999962,20.875
22.15718369,1.475000024,30.91250038,21.02499962
22.16724499,1.625,30.91250038,20.86250114
22.17730598,1.175000072,31.0625,20.71249962
22.18736775,1.175000072,30.3125,21.625
22.19743202,1.037500024,29.4375,22.52499962
22.2074926,1.037500024,29.58749962,22.52499962
22.21755353,0.4375,29.45000076,22.52499962
22.22760629,0.1625000089,28.85000038,22.82500076
22.23766442,0.462500006,28.70000076,23.60000038
22.24772416,0.462500006,28.55000114,23.60000038
22.25778598,0.1625000089,28.70000076,23.75
22.26785176,-0.137500003,28.42500114,23.89999962
22.27791301,0.01250000019,28.57500076,23.89999962
22.2879689,0.01250000019,28.85000038,23.27499962
22.29802843,-0.137500003,28.72500038,23.27499962
22.3080903,0.3125,28.125,24.36250114
22.31815619,0.9125000238,27.375,24.96249962
22.32821952,0.3125,27.67500114,24.96249962
22.33827869,0.3125,27.67500114,24.66250038
22.34834431,0.9125000238,26.78750038,24.02499962
22.35840395,0.9125000238,26.9375,23.5625
22.368469,1.487500072,27.52499962,23.27499962
22.37853676,1.9375,27.64999962,22.03750038
22.38859749,1.787500024,28.10000038,21.4375
22.3986616,1.487500072,28.10000038,20.97500038
22.40872614,1.487500072,28.39999962,20.05000114
22.41879619,1.787500024,28.55000114,19.89999962
22.42885916,2.237499952,28.10000038,18.96249962
22.43892296,2.537500143,28.25,17.72500038
22.44898978,3.125,28.6875,16.66250038
22.4590552,4.587500095,28.53750038,15.88749981
22.46912155,5.037499905,28.6875,14.19999981
22.47918562,4.887500286,28.96249962,12.8125
22.48924843,5.762500286,29.26250076,12.21250057
22.49931379,6.650000095,28.8125,11.75
22.50937931,6.950000286,28.51250076,11.125
22.51944187,6.8125,28.51250076,10.1875
22.52950218,7.700000286,28.64999962,10.21250057
22.53956395,8.862500191,28.64999962,10.52500057
22.54962765,9.462500572,28.20000076,10.82499981
22.5596902,9.887499809,27.30000114,11.90000057
22.5697501,9.462500572,27.45000076,12.66250038
22.57981301,10.1875,27.30000114,13.44999981
22.58987827,11.35000038,26.82500076,14.83750057
22.59993874,11.80000019,26.67500114,15.16250038
22.61000244,12.53750038,26.375,14.6875
22.62006025,13.41250038,26.51250076,14.71250057
22.63012275,14.75,26.21249962,14.08750057
22.64018733,15.32499981,26.1875,14.08750057
22.65024884,15.625,25.88750076,13.9375
22.66031588,16.375,25.4375,13.625
22.6703803,17.26250076,24.71249962,14.08750057
22.68044426,18.4375,24.23750114,13.77500057
22.69050858,18.875,23.9375,13.47500038
22.70057338,19.32500076,23.9375,13.77500057
22.71063827,20.20000076,23.9375,13.17500019
22.72070025,20.35000038,23.1875,13.30000019
22.7307653,20.20000076,22.91250038,13.77500057
22.74082848,21.08749962,22.88750076,13.47500038
22.75089312,21.53750038,22.73750114,13.47500038
22.76095681,21.38750076,22.16250038,13.44999981
22.77102218,21.98750114,21.41250038,13.28750038
22.78108827,22.13750076,20.96249962,12.96250057
22.79115207,21.85000038,20.82500076,12.8125
22.80121588,22.14999962,20.22500038,12.80000019
22.81128098,22.0,20.375,13.26249981
22.82134483,21.85000038,20.67500114,14.05000019
22.83140817,21.85000038,20.82500076,13.90000057
22.84147004,21.85000038,20.67500114,14.19999981
22.85152655,21.70000076,19.35000038,14.63749981
22.86158499,21.125,19.5,14.33750057
22.87164551,20.52499962,20.39999962,14.80000019
22.88170551,19.78750038,20.39999962,15.875
22.89176624,19.0625,20.11250114,16.48750114
22.90182999,18.02499962,20.5625,17.5625
22.91189202,17.42500114,20.86250114,18.17500114
22.92195614,16.55000114,21.01250076,18.95000076
22.93201489,15.51249981,21.03750038,19.71249962
22.94207749,14.76249981,21.33749962,20.1875
22.95214489,14.03750038,21.48750114,20.95000076
22.96220733,12.69999981,21.64999962,21.55000114
22.97227135,11.53750038,21.95000076,22.02499962
22.98233723,10.63749981,22.25,22.48750114
22.99239843,10.63749981,22.70000076,23.42500114
23.0024653,10.21250057,22.39999962,23.41250038
23.0125277,9.025000572,22.27499962,22.9375
23.02259056,8.875,22.72500038,23.41250038
23.03265082,9.162500381,23.45000076,23.72500038
23.04271426,8.875,23.60000038,23.42500114
23.05277728,7.700000286,23.625,23.5625
23.06283687,7.112500191,23.625,23.5625
23.07290171,6.8125,23.92500114,23.08749962
23.08296358,6.087500095,23.92500114,22.9375
23.09302608,5.9375,24.07500076,22.9375
23.10308702,6.212500095,24.375,22.9375
23.11314291,6.087500095,23.92500114,22.78750038
23.12319864,4.75,24.23750114,22.9375
23.13325879,3.875,24.83749962,22.9375
23.1433203,4.150000095,25.27499962,22.63750076
23.1533789,4.0,25.42500114,22.63750076
23.16343791,3.424999952,25.72500038,22.63750076
23.17349916,3.275000095,25.875,22.63750076
23.18355728,3.424999952,25.58749962,22.32500076
23.19361546,3.424999952,25.4375,22.32500076
23.20367577,3.275000095,26.02499962,22.48750114
23.2137364,3.125,25.58749962,22.63750076
23.22379786,3.137500048,25.13750076,22.47500038
23.2338627,2.537500143,25.73750114,22.78750038
23.24392463,2.387500048,26.03750038,22.63750076
23.25398588,2.674999952,26.625,22.48750114
23.26404301,2.537500143,26.32500076,22.48750114
23.27410572,2.387500048,26.03750038,22.63750076
23.28417093,2.237499952,26.03750038,22.78750038
23.29423687,2.987499952,25.58749962,22.63750076
23.3043015,3.725000143,25.28750038,22.9375
23.31436468,3.424999952,24.6875,22.92500114
23.3244315,3.137500048,24.6875,22.92500114
23.33449608,3.725000143,24.53750038,23.08749962
23.34455572,4.900000095,24.52499962,23.71249962
23.35461921,5.1875,24.67500114,24.64999962
23.36467931,4.175000191,23.66250038,25.07500076
23.37474134,4.025000095,23.36250114,24.3125
23.38480364,3.875,23.36250114,24.61250114
23.39486614,3.4375,22.47500038,25.51250076
23.40492718,3.3125,22.20000076,25.51250076
23.41498968,3.012500048,22.05000114,26.57500076
23.42505249,3.162500143,21.89999962,26.75
23.4351178,3.012500048,21.89999962,26.11250114
23.44518317,3.012500048,21.45000076,26.57500076
23.45524853,3.162500143,21.60000038,26.89999962
23.46531093,2.712500095,21.75,26.26250076
23.47536905,2.725000143,21.3125,26.11250114
23.4854302,3.3125,21.30000114,26.11250114
23.49549098,4.337500095,21.42500114,26.42500114
23.50554947,4.487500191,20.26250076,26.11250114
23.51560791,5.087500095,19.8125,25.32500076
23.5256664,5.950000286,20.39999962,25.33749962
23.53573041,6.25,20.82500076,25.03750038
23.5457927,6.6875,21.26250076,24.73750114
23.5558564,6.987500191,21.26250076,23.97500038
23.56591822,6.849999905,20.52499962,23.80000114
23.57598025,7.150000095,19.64999962,23.33749962
23.58604405,8.3125,19.77499962,22.71249962
23.59610671,8.912500381,19.92500114,22.41250038
23.60616999,9.199999809,19.91250038,21.96249962
23.61623364,9.650000572,19.91250038,21.64999962
23.62629452,10.10000038,19.17500114,21.02499962
23.63635192,11.41250038,19.46249962,19.96249962
23.64641286,13.32499981,19.4375,19.82500076
23.65647546,13.625,19.57500076,19.21249962
23.66653447,13.77500057,18.83749962,18.73750114
23.6765952,14.52500057,18.08749962,18.875
23.68665681,15.25,18.38750076,18.73750114
23.69672187,16.4375,18.22500038,17.97500038
23.70678645,17.46249962,17.1875,16.26250076
23.71685067,19.55000114,16.125,15.02500057
23.72691499,21.46249962,15.94999981,14.41250038
23.73698296,22.1875,15.375,12.875
23.74704317,23.38750076,14.77500057,11.3125
23.75710671,24.72500038,13.875,10.69999981
23.7671727,25.45000076,13.27500057,10.52500057
23.77723364,26.33749962,13.27500057,9.3125
23.78729744,27.66250038,12.67500019,8.6875
23.79736395,28.26250076,11.625,8.675000191
23.80743155,28.86250114,11.17500019,8.675000191
23.81749692,29.75,10.875,9.287500381
23.82756062,30.17500114,10.125,10.82499981
23.83762426,30.17500114,9.537500381,11.57499981
23.84768869,30.05000114,8.9375,12.05000019
23.85775598,30.625,9.237500191,12.05000019
23.86782176,31.0625,9.225000381,12.51249981
23.87788489,31.21249962,8.637499809,13.75
23.88794838,31.66250038,8.037500381,13.88749981
23.89801249,31.66250038,7.887500286,13.73750019
23.90807718,31.66250038,7.587500095,14.03750038
23.91814004,32.11249924,6.712500095,14.80000019
23.92820233,32.98749924,6.112500191,15.10000038
23.9382615,33.4375,6.387500286,14.5
23.94832051,33.58750153,6.237500191,13.71250057
23.95837926,34.17499924,5.9375,13.71250057
23.96844067,34.03750229,5.512500286,14.33750057
23.9785039,33.46250153,4.925000191,14.46250057
23.98856489,33.4375,5.212500095,14.46250057
23.9986276,34.02500153,5.512500286,15.25
24.00868931,34.47500229,5.0625,15.25
24.01875254,34.17499924,5.9375,14.48750019
24.0288151,33.58750153,6.387500286,14.33750057
24.03887843,33.875,6.087500095,14.65000057
24.04894161,33.58750153,6.237500191,14.48750019
24.05900567,32.98749924,6.987500191,14.65000057
24.06906853,33.125,8.025000572,14.67500019
24.07913056,33.25,9.199999809,14.08750057
24.08919129,33.10000229,9.487500191,14.5625
24.09925468,32.67499924,9.350000381,14.6875
24.10931801,32.67499924,9.637499809,14.5625
24.11938056,32.82500076,9.637499809,15.32499981
24.12944343,32.79999924,9.637499809,16.10000038
24.13950426,32.79999924,9.337500572,16.86250114
24.1495626,32.375,8.600000381,17.78750038
24.15962025,32.52500153,8.449999809,18.23750114
24.16967723,33.10000229,8.449999809,18.39999962
24.1797415,33.98749924,8.287500381,19.02499962
24.1898027,34.4375,7.25,19.47500038
24.19986437,34.0,6.525000095,19.30000114
24.20992374,34.58750153,6.800000191,19.625
24.2199852,35.46250153,6.349999905,19.45000076
24.23004661,35.1875,6.375,18.83749962
24.24010744,34.88750076,6.075000286,19.30000114
24.25017187,35.48749924,5.625,19.28750038
24.26023567,35.78750229,5.325000286,19.60000038
24.27029598,35.9375,5.175000191,18.8125
24.28036056,36.08750153,4.875,18.96249962
24.29042046,36.0625,5.474999905,19.30000114
24.30048218,36.0625,5.474999905,18.36250114
24.31053973,36.66250229,5.175000191,18.0625
24.32060218,37.40000153,6.050000191,17.61250114
24.33066546,37.10000229,5.900000095,18.08749962
24.34072457,37.40000153,5.300000191,18.38750076
24.35078567,37.54999924,5.300000191,18.38750076
24.36084749,37.82500076,5.0,18.83749962
24.37090692,37.97500229,5.0,19.45000076
24.38097275,37.82500076,5.150000095,20.23750114
24.39103765,38.27500153,4.849999905,20.6875
24.40110431,38.42499924,4.400000095,21.61250114
24.41116624,37.82500076,4.700000286,22.39999962
24.42123181,37.67499924,4.700000286,23.16250038
24.43128869,37.96250153,4.700000286,24.25
24.44134978,37.8125,4.987500191,25.33749962
24.45141067,37.07500076,4.700000286,26.08749962
24.46147108,36.79999924,4.400000095,26.08749962
24.47153103,37.66250229,4.550000191,26.5625
24.48159218,37.96250153,4.837500095,27.02499962
24.49165254,37.36249924,5.4375,27.8125
24.50171108,36.91250229,5.4375,29.05000114
24.51177192,36.61249924,5.587500095,31.52499962
24.52183332,35.125,6.337500095,33.0625
24.53189322,34.10000229,6.787499905,34.29999924
24.54195202,33.65000153,6.787499905,35.38750076
24.5520091,32.91250229,6.5,35.83750153
24.56206999,32.1875,6.800000191,36.91250229
24.57212884,31.58749962,6.800000191,37.375
24.58218666,30.85000038,6.800000191,38.0
24.59224801,30.70000076,7.099999905,38.0
24.60230832,30.125,7.099999905,38.0
24.61237135,29.38750076,6.825000286,38.27500153
24.62242952,29.52499962,6.974999905,38.60000229
24.63248978,29.22500038,7.700000286,38.61249924
24.64255145,29.22500038,8.0,38.46250153
24.65261098,29.375,7.700000286,38.0
24.66267166,30.10000038,7.700000286,38.15000153
24.67272952,30.85000038,7.400000095,37.85000229
24.68278937,30.42500114,6.825000286,37.0625
24.69285077,30.13750076,6.087500095,36.88750076
24.70291332,30.57500076,6.075000286,36.88750076
24.71297666,30.875,5.925000191,37.03750229
24.72304129,30.27499962,5.787499905,37.48749924
24.73310176,30.28750038,5.1875,37.63750076
24.74316405,29.38750076,5.212500095,39.17499924
24.75322681,27.47500038,5.512500286,41.1875
24.76328832,26.01250076,5.099999905,42.40000153
24.77335358,25.28750038,5.25,43.17499924
24.78341593,25.41250038,5.525000095,43.63750076
24.79348051,25.85000038,6.125,43.03750229
24.80354161,27.05000114,5.375,42.40000153
24.81360369,27.5,4.474999905,42.40000153
24.82366239,27.625,5.075000286,41.78750229
24.83372072,27.77499962,5.512500286,41.65000153
24.84378244,27.77499962,4.925000191,41.63750076
24.85384447,27.47500038,4.925000191,41.48749924
24.86390655,27.47500038,5.075000286,41.48749924
24.87396676,28.22500038,4.625,42.25
24.8840302,28.51250076,4.474999905,42.54999924
24.89409265,28.21249962,5.212500095,42.88750076
24.90415317,28.21249962,5.212500095,43.03750229
24.91421207,29.11250114,4.3125,43.33750153
24.92427437,29.6875,4.612500191,42.88750076
24.93433926,30.13750076,4.162499905,41.79999924
24.94439937,31.75,3.412500143,41.48749924
24.95446322,32.20000076,3.387500048,41.1875
24.96452562,31.89999962,3.112499952,41.16250229
24.9745916,31.89999962,3.112499952,41.95000076
24.98465056,31.625,2.662500143,41.63750076
24.99471187,31.625,2.512500048,42.23749924
25.00477197,31.75,2.962500095,43.02500153
25.01483197,31.47500038,2.962500095,43.02500153
25.02489004,30.73750114,2.674999952,42.70000076
25.03494989,30.72500038,2.975000143,42.875
25.04501135,30.875,3.412500143,43.02500153
25.05507291,31.30000114,3.5625,42.42499924
25.06513056,32.20000076,3.837500095,40.88750076
25.07519369,33.08750153,3.6875,39.5
25.08525567,34.41250229,3.674999952,38.27500153
25.09531801,35.875,3.950000048,36.4375
25.10537728,37.0625,3.950000048,35.20000076
25.11543869,37.0625,4.237500191,34.90000153
25.1255014,36.76250076,4.237500191,35.04999924
25.13556499,36.76250076,3.799999952,35.20000076
25.14562541,36.17499924,3.375,35.5
25.15568619,35.45000076,2.924999952,36.10000229
25.16574723,34.86249924,2.0625,37.15000153
25.1758127,33.70000076,1.175000072,37.4375
25.18588088,33.125,1.175000072,37.75
25.19594483,32.97500229,1.325000048,38.375
25.20600885,32.97500229,1.050000072,38.20000076
25.21607161,32.52500153,1.350000024,38.67499924
25.2261339,31.78750038,1.350000024,38.82500076
25.23619796,31.21249962,0.9125000238,38.65000153
25.24626317,30.61250114,1.212499976,38.95000076
25.2563314,30.3125,1.362500072,39.57500076
25.26639207,30.16250038,1.950000048,39.58750153
25.27645546,30.02499962,1.8125,38.79999924
25.28651978,29.72500038,1.087499976,38.63750076
25.2965826,29.875,1.962499976,38.97500229
25.30664525,29.42500114,2.262500048,38.97500229
25.31670754,28.55000114,1.837499976,38.79999924
25.32677062,27.66250038,2.137500048,38.79999924
25.33683343,27.38750076,1.837499976,38.63750076
25.34689775,27.53750038,0.9499999881,38.61249924
25.3569628,27.38750076,1.399999976,37.85000229
25.36702499,27.10000038,1.399999976,37.22500229
25.37709082,27.53750038,1.25,37.22500229
25.38715447,27.23750114,1.399999976,37.22500229
25.39721421,26.64999962,0.8249999881,38.15000153
25.40727879,26.64999962,0.6750000119,38.29999924
25.41734338,26.22500038,0.8249999881,38.29999924
25.42740739,25.92500114,0.8249999881,38.15000153
25.43746978,25.9375,-0.337500006,37.1875
25.44753426,25.78750038,-0.4875000119,36.40000153
25.45759749,25.48750114,-0.1875,37.03750229
25.46766244,25.78750038,-0.337500006,36.25
25.4777215,26.08749962,-0.337500006,35.48749924
25.48778416,26.23750114,-0.1875,35.48749924
25.49784603,26.82500076,-0.212500006,34.88750076
25.50790937,27.27499962,-0.3625000119,33.79999924
25.51797135,27.27499962,-0.6374999881,32.86249924
25.52803494,27.13750076,-0.4875000119,32.71250153
25.53810082,26.97500038,0.3875000179,33.20000076
25.54816614,26.375,1.274999976,32.90000153
25.55822822,25.78750038,2.025000095,32.90000153
25.56828989,26.07500076,2.174999952,33.51250076
25.57835546,26.07500076,2.299999952,33.53750229
25.58841858,25.48750114,2.025000095,33.51250076
25.59848051,24.46249962,2.174999952,34.28750229
25.60854025,23.125,2.637500048,34.4375
25.61860395,22.25,2.487499952,35.03750229
25.62866775,22.10000038,2.787500143,36.125
25.63872978,21.95000076,3.537500143,36.28750229
25.64879348,21.05000114,4.125,36.76250076
25.65885551,20.3125,4.137500286,36.91250229
25.6689191,20.3125,4.287499905,36.76250076
25.67898374,20.89999962,4.875,36.92499924
25.68904473,19.86250114,4.875,37.70000076
25.69910593,18.6875,5.474999905,38.46250153
25.70916765,17.9375,6.375,38.78750229
25.7192276,17.05000114,7.275000095,38.95000076
25.72928541,16.89999962,7.700000286,39.88750076
25.7393452,16.02499962,7.875,40.1875
25.74940608,14.53750038,8.324999809,40.33750153
25.7594664,13.8125,8.625,41.42499924
25.76952468,13.63749981,8.925000191,42.36249924
25.77958473,13.0625,9.225000381,42.36249924
25.78964098,11.75,9.087500572,41.57500076
25.79970249,10.86250019,9.087500572,41.875
25.80976327,10.41250038,9.112500191,42.5
25.81982374,9.987500191,8.962500572,42.47500229
25.82988405,9.962500572,9.537500381,42.5
25.83994353,9.6875,9.837500572,42.65000153
25.85000358,8.949999809,9.112500191,43.10000229
25.86006291,8.350000381,8.975000381,43.54999924
25.87011921,8.650000572,9.5625,43.10000229
25.8801789,8.375,9.125,42.47500229
25.89024082,8.225000381,8.975000381,42.77500153
25.90030249,8.375,8.675000191,43.22500229
25.91036437,7.487500191,7.950000286,43.67499924
25.92042744,7.362500191,7.362500191,43.36249924
25.93049046,7.212500095,6.487500191,43.1875
25.94055379,7.075000286,5.300000191,43.77500153
25.95061692,6.950000286,4.137500286,43.90000153
25.9606789,6.362500191,3.412500143,43.58750153
25.97074166,6.087500095,2.375,43.71250153
25.98080905,5.650000095,1.350000024,44.0
25.9908702,4.037499905,1.0625,44.60000229
26.000934,0.8000000119,1.25,44.875
26.01099645,-1.100000024,1.137500048,44.53750229
26.02105999,-1.825000048,0.7125000358,44.22500229
26.03112082,-2.712500095,1.4375,43.92499924
26.04118593,-1.700000048,1.4375,43.77500153
26.05124671,-0.9499999881,1.575000048,43.78750229
26.06131072,-0.237499997,2.150000095,43.63750076
26.07137431,0.8000000119,2.0,43.1875
26.08143593,0.8000000119,2.4375,43.36249924
26.09149483,1.075000048,2.887500048,43.52500153
26.1015551,0.9250000119,3.762500048,42.91250229
26.11161301,1.212499976,5.375,42.65000153
26.12167395,1.212499976,6.262500286,42.04999924
26.13173702,1.212499976,6.5625,41.90000153
26.14180077,1.337499976,6.712500095,42.20000076
26.15186072,1.037500024,7.4375,41.60000229
26.16192431,1.325000048,8.324999809,42.08750153
26.17198801,2.200000048,9.350000381,42.10000229
26.18204999,2.1875,10.38749981,40.88750076
26.19211197,2.1875,10.6875,40.58750153
26.20217598,3.512500048,10.8125,40.90000153
26.21223728,4.375,11.52500057,40.77500153
26.22229619,4.8125,12.71250057,40.33750153
26.23235786,5.387500286,12.98750019,40.36249924
26.24241822,6.875,12.6875,40.36249924
26.2524801,7.887500286,13.125,39.76250076
26.26254119,8.462500572,13.69999981,39.3125
26.27260499,9.199999809,14.13749981,39.79999924
26.2826677,9.625,14.26249981,40.71250153
26.29272817,9.5,14.71250057,40.26250076
26.30278801,9.625,15.44999981,39.8125
26.31284838,10.78750038,15.72500038,40.29999924
26.32290832,11.97500038,16.01250076,40.0
26.33297067,12.85000038,16.13750076,39.70000076
26.34303056,14.33750057,15.53750038,39.25
26.35309239,15.65000057,15.23750019,38.48749924
26.36315499,16.52499962,15.82499981,38.1875
26.37321598,17.83749962,15.80000019,38.04999924
26.3832764,19.17500114,15.63749981,37.58750153
26.39334098,19.77499962,15.33750057,37.11249924
26.40340775,20.80000114,14.73750019,36.8125
26.41347369,21.6875,14.86250019,36.8125
26.42353655,23.0,15.15000057,36.53750229
26.43359676,23.72500038,15.15000057,35.91250229
26.44365515,24.17500114,15.30000019,35.76250076
26.45371405,25.21249962,15.125,35.3125
26.46377447,25.36250114,14.55000019,34.375
26.47383926,25.9375,14.82499981,33.61249924
26.48390489,26.53750038,14.97500038,33.01250076
26.49396791,26.82500076,14.82499981,32.6875
26.50402364,26.83749962,14.375,32.6875
26.51408671,26.98750114,14.07499981,32.22500229
26.5241489,26.98750114,13.65000057,32.20000076
26.53421202,26.11250114,13.51249981,32.03750229
26.54427223,25.52499962,13.8125,32.20000076
26.55433364,25.07500076,13.96250057,33.125
26.56439723,24.92500114,14.11250019,33.125
26.57445853,24.05000114,14.26249981,33.27500153
26.58451582,22.88750076,13.6875,33.72500229
26.59457504,21.70000076,13.69999981,33.54999924
26.60463442,20.80000114,14.60000038,34.02500153
26.61469379,19.1875,15.05000019,35.11249924
26.62474952,16.97500038,15.22500038,36.32500076
26.63480562,15.21250057,15.38749981,37.07500076
26.64486379,14.03750038,15.41250038,36.92499924
26.65492134,12.875,15.42500019,36.91250229
26.66498108,12.27500057,16.01250076,37.70000076
26.67504369,11.53750038,16.16250038,38.15000153
26.68510395,10.78750038,16.32500076,38.29999924
26.69516942,10.21250057,16.625,39.23749924
26.70523004,9.612500191,17.07500076,39.70000076
26.71528957,8.725000381,17.67500114,39.54999924
26.72534895,8.425000191,18.11250114,39.70000076
26.73541233,9.012499809,18.53750038,40.1875
26.74547181,9.012499809,18.98750114,39.72500229
26.75553338,8.5625,19.28750038,38.79999924
26.76559593,8.5625,20.47500038,38.97500229
26.77565707,8.6875,21.64999962,39.01250076
26.7857177,8.837500572,21.9375,38.86249924
26.79577999,9.425000191,21.9375,38.38750076
26.80584296,9.850000381,22.8125,38.26250076
26.81590858,10.13749981,24.14999962,38.125
26.82596713,9.987500191,24.72500038,37.375
26.83602603,9.987500191,25.17500114,36.76250076
26.84608775,10.85000038,25.61250114,36.77500153
26.85614786,11.30000019,25.61250114,36.47500229
26.86620942,11.30000019,26.1875,35.5625
26.8762641,11.44999981,26.63750076,35.41250229
26.88632426,12.02500057,26.77499962,35.11249924
26.89639004,12.3125,27.64999962,34.36249924
26.90644713,12.3125,28.25,33.73749924
26.91650744,13.47500038,28.38750076,33.61249924
26.92656619,14.375,28.0625,33.92499924
26.93662546,13.77500057,27.78750038,33.91250229
26.94668582,12.91250038,27.5,33.73749924
26.95674426,12.46250057,26.92500114,34.66250229
26.96680786,12.17500019,26.03750038,35.26250076
26.97687192,10.41250038,25.61250114,35.22500229
26.98693306,8.949999809,25.05000114,36.28750229
26.99699296,8.225000381,24.46249962,36.57500076
27.00705364,7.212500095,23.4375,37.32500076
27.01711536,6.474999905,22.70000076,38.07500076
27.0271764,5.162499905,22.72500038,38.375
27.03723728,3.6875,22.4375,38.20000076
27.04729588,3.6875,22.73750114,37.73749924
27.05736082,3.100000143,22.73750114,37.58750153
27.06742624,2.674999952,22.16250038,37.5625
27.07748968,2.525000095,21.875,37.71250153
27.08755155,2.375,22.02499962,36.95000076
27.09761765,3.549999952,22.46249962,36.02500153
27.1076814,4.287499905,22.73750114,34.8125
27.11774067,4.587500095,22.28750038,34.48749924
27.12779957,4.862500191,23.32500076,35.29999924
27.13785822,5.150000095,23.89999962,35.46250153
27.1479165,5.450000286,24.05000114,35.15000153
27.15797942,5.75,24.5,34.07500076
27.16803702,5.012500286,24.80000114,33.3125
27.17809671,4.849999905,25.83749962,33.32500076
27.18816239,6.012500286,27.30000114,32.60000229
27.19822676,6.587500095,28.46249962,32.0
27.20829108,6.737500191,28.76250076,31.22500038
27.21835416,7.75,29.33749962,29.38750076
27.22841437,8.787500381,30.375,28.1875
27.23847437,9.0625,31.38750076,27.73750114
27.24853296,9.5,32.71250153,27.3125
27.25859108,10.07499981,33.15000153,26.41250038
27.26865155,10.96250057,33.875,25.33749962
27.27871254,11.83750057,34.46250153,24.42500114
27.28877093,13.0,35.03750229,23.98750114
27.29883562,14.03750038,35.625,23.38750076
27.30889431,15.21250057,35.60000229,22.47500038
27.31895624,16.10000038,35.73749924,21.875
27.32901687,16.97500038,35.73749924,21.57500076
27.33907911,17.98750114,36.01250076,20.64999962
27.34914176,18.73750114,36.01250076,20.03750038
27.35920385,20.48750114,36.57500076,19.13750076
27.36926374,21.66250038,37.16250229,18.08749962
27.37932187,22.85000038,36.98749924,17.14999962
27.38938358,23.72500038,37.28750229,16.07500076
27.39944207,24.73750114,37.875,14.875
27.40950317,26.52499962,37.70000076,13.63749981
27.41956593,27.98750114,37.10000229,12.57499981
27.4296265,28.88750076,36.79999924,11.78750038
27.43968614,29.61250114,36.48749924,10.86250019
27.44974853,30.80000114,36.03750229,9.475000381
27.45980858,31.70000076,35.88750076,7.9375
27.46986603,32.42499924,35.58750153,7.150000095
27.47992895,33.61249924,35.13750076,6.237500191
27.48999239,34.36249924,34.83750153,5.3125
27.50005489,34.9375,34.53750229,4.224999905
27.51011296,35.53750229,33.9375,3.137500048
27.52017718,36.13750076,33.33750153,2.5
27.53024082,36.57500076,33.33750153,2.200000048
27.5403064,37.32500076,33.03750229,1.287500024
27.5503677,38.04999924,32.58750153,1.4375
27.56043062,38.20000076,32.28750229,1.737500072
27.57049301,38.5,32.13750076,1.587499976
27.58055374,38.5,31.83749962,2.5
27.59061437,38.35000229,31.55000114,3.575000048
27.60067478,38.20000076,31.98750114,3.587500095
27.61073437,38.04999924,31.98750114,4.0625
27.62079426,38.35000229,31.10000038,6.200000286
27.63085546,38.48749924,31.08749962,8.525000572
27.64091697,37.88750076,31.38750076,10.52500057
27.65098197,36.70000076,32.13750076,12.38749981
27.6610464,35.07500076,33.61249924,14.26249981
27.67111067,33.4375,34.23749924,15.80000019
27.6811714,32.26250076,34.53750229,17.5
27.69123327,30.47500038,35.28750229,19.21249962
27.70129832,28.5625,36.33750153,21.36250114
27.71135947,26.63750076,37.08750153,22.30000114
27.72141926,25.32500076,37.40000153,22.60000038
27.7314801,23.98750114,37.70000076,23.375
27.74154062,22.21249962,38.90000153,24.13750076
27.75160322,20.30000114,40.40000153,24.16250038
27.76166885,19.85000038,40.85000229,24.3125
27.7717301,19.25,40.85000229,24.46249962
27.78179129,17.48750114,41.02500153,24.46249962
27.79185187,16.17500114,41.77500153,24.46249962
27.801909,14.6875,43.125,24.16250038
27.81196858,13.36250019,44.17499924,23.86250114
27.82202541,12.17500019,44.625,23.71249962
27.83208395,11.15000057,45.52500153,22.78750038
27.84214358,10.55000019,45.67499924,22.625
27.85220754,9.387499809,46.125,22.47500038
27.86226874,8.199999809,47.32500076,21.25
27.87233155,7.175000191,47.92499924,20.78750038
27.88239192,6.425000191,48.08750153,20.16250038
27.89245098,5.712500095,47.9375,19.0625
27.90251108,5.112500191,48.53750229,18.76250076
27.91256765,4.512500286,49.4375,18.92500114
27.92262593,4.075000286,48.86249924,18.46249962
27.93268603,3.200000048,48.86249924,18.28750038
27.9427489,2.3125,49.16250229,18.58749962
27.95280749,1.862500072,49.02500153,19.0625
27.96286692,1.887500048,48.42499924,19.36250114
27.97292864,1.887500048,48.875,19.0625
27.98299088,1.300000072,48.60000229,18.57500076
27.99305483,1.450000048,48.15000153,18.25
28.00311733,1.737500072,48.29999924,19.1875
28.01317869,2.1875,47.97500229,20.125
28.02324322,2.337500095,47.40000153,19.63750076
28.03330832,2.612499952,47.25,19.96249962
28.04337072,2.912500143,46.79999924,20.26250076
28.0534364,2.637500048,45.63750076,20.23750114
28.06350338,2.637500048,45.1875,21.46249962
28.07356088,2.9375,45.3125,22.25
28.08362312,2.9375,44.73749924,22.55000114
28.09368723,2.787500143,44.73749924,22.70000076
28.10374749,2.787500143,44.13750076,23.91250038
28.11381041,2.787500143,43.85000229,24.38750076
28.1238714,2.799999952,43.25,23.89999962
28.13393437,2.650000095,42.82500076,23.11250114
28.14399541,2.5,43.125,22.8125
28.15405812,2.200000048,44.0,22.82500076
28.16412286,1.625,44.15000153,22.82500076
28.17418848,2.5,43.40000153,22.97500038
28.18424536,2.5,43.40000153,23.125
28.19430431,2.350000143,42.82500076,24.20000076
28.20436577,2.5,42.22500229,24.80000114
28.21442884,2.525000095,41.78750229,25.26250076
28.22448801,2.650000095,41.78750229,25.41250038
28.23455036,2.650000095,42.07500076,24.64999962
28.24461046,3.537500143,42.375,23.27499962
28.25467286,4.287499905,42.22500229,21.88750076
28.264734,5.037499905,41.47500229,21.39999962
28.27479822,6.349999905,42.04999924,20.03750038
28.28485707,7.075000286,42.78750229,18.05000114
28.29491744,7.675000191,42.78750229,15.88749981
28.30497739,8.987500191,43.0625,14.375
28.31503999,9.587500572,43.5,12.83750057
28.32510312,10.02500057,43.5,10.82499981
28.33517213,10.77500057,43.20000076,8.199999809
28.34523103,11.375,43.04999924,6.650000095
28.35529207,12.10000038,43.04999924,5.875
28.36535525,12.69999981,42.45000076,3.875
28.37541848,13.60000038,41.71250153,2.162500143
28.3854802,14.63749981,40.96250153,1.524999976
28.39554421,15.08750057,40.96250153,1.375
28.40560806,15.51249981,40.66250229,1.850000024
28.41567077,16.70000076,40.5,2.637500048
28.42572926,17.57500076,40.32500076,3.100000143
28.43579015,18.02499962,39.45000076,3.549999952
28.44585291,18.61250114,38.54999924,4.300000191
28.45591562,19.78750038,37.79999924,4.625
28.46597681,21.57500076,37.04999924,4.0
28.47604135,22.89999962,36.45000076,2.762500048
28.48610364,23.9375,35.70000076,2.600000143
28.49617093,24.38750076,34.8125,2.600000143
28.50623374,24.6875,34.21250153,1.962499976
28.51629619,25.13750076,33.33750153,1.175000072
28.52635786,25.73750114,31.85000038,0.5375000238
28.5364177,26.03750038,31.39999962,-0.400000006
28.54647666,26.48750114,31.55000114,-1.0
28.55653983,27.08749962,31.25,-1.475000024
28.56660187,28.41250038,30.5,-2.262500048
28.57665838,29.14999962,29.60000038,-2.262500048
28.58671489,29.75,28.72500038,-2.424999952
28.5967765,29.61250114,27.6875,-3.212500095
28.60683853,29.46249962,27.83749962,-3.537500143
28.61690358,30.35000038,27.6875,-3.837500095
28.62696098,30.80000114,27.53750038,-4.150000095
28.63701994,30.80000114,26.9375,-3.537500143
28.64708114,30.36250114,26.51250076,-2.9375
28.65714744,30.51250076,26.0625,-2.637500048
28.66721192,31.07500076,26.78750038,-1.375
28.67727489,31.07500076,27.22500038,-1.0625
28.68733989,31.22500038,26.78750038,-0.9125000238
28.69740218,31.22500038,26.77499962,0.474999994
28.70746338,30.625,26.78750038,2.1875
28.71752468,30.02499962,28.25,3.762500048
28.72758572,29.125,29.45000076,4.224999905
28.73764874,27.95000076,29.75,5.150000095
28.74770858,27.20000076,30.05000114,6.700000286
28.75776952,25.88750076,30.5,7.775000095
28.76783046,24.83749962,31.25,8.712500572
28.77788999,24.25,31.39999962,9.800000191
28.7879502,23.20000076,32.29999924,10.11250019
28.79801228,22.17500114,33.20000076,10.26249981
28.80807515,20.41250038,33.5,10.88749981
28.81814015,18.92500114,34.40000153,11.97500038
28.82820233,18.05000114,34.70000076,12.58750057
28.8382653,16.5625,35.60000229,12.88749981
28.84832358,15.08750057,36.79999924,13.0625
28.8583828,14.19999981,36.82500076,13.0625
28.8684453,13.32499981,36.38750076,12.72500038
28.878509,12.01249981,36.98749924,12.10000038
28.88857056,11.71250057,37.58750153,12.27500057
28.89862994,10.8125,38.1875,12.73750019
28.90869275,9.5,38.0625,11.80000019
28.9187541,8.612500191,37.92499924,10.40000057
28.92881666,7.887500286,37.625,9.912500381
28.9388778,7.450000286,37.35000229,10.375
28.94893978,6.700000286,38.52500153,10.69999981
28.95900369,6.550000191,38.67499924,10.07499981
28.96906728,5.974999905,38.25,9.4375
28.97912895,4.962500095,38.41250229,9.137499809
28.98919369,5.237500191,38.40000153,9.4375
28.99925879,5.537499905,38.25,9.587500572
29.00932218,5.237500191,37.66250229,10.66250038
29.01938327,4.8125,37.51250076,10.66250038
29.02944582,4.375,37.38750076,10.1875
29.03950817,4.962500095,37.08750153,10.66250038
29.04957306,4.8125,37.38750076,10.51249981
29.0596314,4.224999905,37.6875,10.51249981
29.06969416,4.8125,37.38750076,10.96250057
29.07975739,5.112500191,37.36249924,10.66250038
29.0898214,4.362500191,37.6875,10.66250038
29.099884,4.512500286,37.66250229,10.97500038
29.10994666,4.962500095,36.9375,11.27500057
29.12001046,4.962500095,36.48749924,11.72500038
29.13007473,5.262500286,36.33750153,12.02500057
29.14013702,5.6875,36.33750153,12.66250038
29.15020072,5.987500191,36.1875,13.11250019
29.16026426,6.137500286,36.03750229,14.35000038
29.17032905,6.849999905,36.3125,15.61250019
29.18038713,7.025000095,35.26250076,16.36250114
29.190449,6.875,34.23749924,17.57500076
29.20051374,6.724999905,34.10000229,18.02499962
29.21057791,6.137500286,34.10000229,18.80000114
29.22064296,6.425000191,34.10000229,18.96249962
29.23070395,6.287499905,33.79999924,19.41250038
29.2407676,6.287499905,33.22500229,19.41250038
29.25083004,7.175000191,33.78750229,18.64999962
29.26089405,7.599999905,33.63750076,18.35000038
29.27095916,6.887500286,33.20000076,18.32500076
29.28102343,6.737500191,33.35000229,18.47500038
29.29108697,6.887500286,33.04999924,18.625
29.30114994,6.287499905,32.92499924,18.47500038
29.31120942,5.862500191,33.375,18.47500038
29.32127155,5.837500095,33.375,19.25
29.33133306,5.412499905,32.77500153,19.70000076
29.34139499,4.825000286,32.0625,19.52499962
29.35145249,4.825000286,32.33750153,19.375
29.36151384,5.575000286,32.03750229,19.375
29.37157551,6.587500095,32.03750229,18.46249962
29.38163843,7.1875,32.17499924,17.22500038
29.39170332,7.487500191,31.88750076,16.14999962
29.40176536,7.9375,31.58749962,15.83750057
29.41182895,8.387499809,31.13750076,15.05000019
29.42189166,8.975000381,30.23750114,14.42500019
29.43195442,9.574999809,29.36250114,14.26249981
29.44201291,10.02500057,29.78750038,13.66250038
29.45207588,11.05000019,29.1875,11.94999981
29.4621401,11.9375,28.73750114,11.16250038
29.47220504,12.23750019,28.73750114,11.01249981
29.48226692,12.53750038,28.16250038,10.69999981
29.49233437,12.83750057,27.86250114,11.16250038
29.50240051,13.13749981,27.41250038,10.55000019
29.5124664,13.4375,26.96249962,10.07499981
29.52253025,14.16250038,26.36250114,11.0
29.53259619,13.88749981,25.47500038,11.125
29.54266286,13.58750057,25.625,11.44999981
29.55272478,14.01249981,26.21249962,11.91250038
29.56278801,14.3125,25.77499962,12.0625
29.57285176,14.61250019,25.17500114,12.83750057
29.5829141,15.05000019,25.02499962,13.30000019
29.59297676,15.35000038,24.27499962,12.98750019
29.60303733,15.80000019,24.125,13.4375
29.61309937,16.375,24.5625,13.30000019
29.62315765,16.97500038,24.125,12.83750057
29.63321853,17.27499962,23.375,12.8125
29.64327921,17.57500076,22.80000114,12.35000038
29.65334187,17.875,22.77499962,11.875
29.66340494,18.01250076,23.07500076,12.19999981
29.67346567,18.61250114,22.17500114,12.19999981
29.68352765,19.33749962,21.60000038,12.02500057
29.69359134,19.63750076,22.17500114,11.90000057
29.70364739,20.22500038,21.72500038,11.42500019
29.71370957,20.67500114,20.97500038,11.5625
29.72377254,20.97500038,20.25,11.5625
29.73383843,21.42500114,19.95000076,10.78750038
29.74390145,21.27499962,19.95000076,11.38749981
29.75396733,21.57500076,19.5,11.38749981
29.76402957,21.875,19.35000038,10.625
29.77409666,21.875,19.5,10.15000057
29.78415822,21.875,19.20000076,10.77500057
29.79422067,21.875,18.61250114,11.07499981
29.80428702,21.28750038,18.91250038,11.07499981
29.81435327,21.125,19.64999962,12.625
29.82441015,21.125,19.5,13.25
29.83447202,19.96249962,19.51250076,13.40000057
29.84453036,19.21249962,20.11250114,14.9375
29.85459478,18.61250114,20.26250076,16.17500114
29.8646491,17.30000114,19.98750114,16.77499962
29.87470827,16.11250114,20.28750038,17.38750076
29.8847689,15.08750057,20.58749962,18.625
29.89483562,14.19999981,20.45000076,19.70000076
29.904899,12.57499981,20.47500038,20.45000076
29.914964,11.5625,20.47500038,21.21249962
29.92502832,11.38749981,20.77499962,22.14999962
29.93508957,10.51249981,21.22500038,21.53750038
29.94514733,10.0625,22.125,21.08749962
29.95520947,9.612500191,23.0,21.25
29.96527348,8.150000572,22.72500038,21.38750076
29.97533874,7.112500191,23.03750038,21.53750038
29.98539926,6.8125,23.1875,22.0
29.99546577,6.8125,23.47500038,22.17500114
30.00553275,5.787499905,24.22500038,21.39999962
30.01560067,4.900000095,24.38750076,20.76250076
30.02566202,5.050000191,24.38750076,20.3125
30.03572749,4.75,24.98750114,20.01250076
30.04579062,4.450000286,25.42500114,20.01250076
30.05585598,4.175000191,25.4375,19.39999962
30.06592088,4.025000095,25.72500038,18.92500114
30.07598562,2.987499952,25.28750038,19.07500076
30.08604353,2.5625,25.73750114,19.22500038
30.09610551,3.275000095,26.32500076,19.25
30.10616947,3.287500143,25.88750076,19.39999962
30.11623239,2.6875,25.4375,19.85000038
30.12629614,2.987499952,25.01250076,20.14999962
30.13636463,2.987499952,25.16250038,20.0
30.14642655,2.112499952,25.88750076,19.22500038
30.15649114,2.262500048,26.1875,20.01250076
30.16655666,2.412500143,25.58749962,20.61250114
30.17662103,2.112499952,25.61250114,20.76250076
30.1866816,2.412500143,25.3125,21.6875
30.19674114,2.987499952,24.41250038,21.98750114
30.20680395,3.137500048,24.11250114,22.75
30.2168702,2.412500143,23.82500076,23.82500076
30.22693421,2.112499952,23.67500114,24.76250076
30.23699718,1.962499976,23.67500114,25.375
30.24706176,1.8125,23.67500114,25.21249962
30.25712312,1.8125,23.82500076,25.82500076
30.26718728,1.375,22.80000114,25.66250038
30.27725312,1.675000072,22.0625,25.8125
30.28731489,2.5625,22.77499962,26.27499962
30.29737874,2.5625,22.35000038,26.27499962
30.30744166,2.275000095,22.05000114,26.11250114
30.31750348,1.550000072,22.21249962,25.63750076
30.3275664,1.25,22.21249962,25.63750076
30.33763306,1.675000072,22.0625,25.96249962
30.34769838,1.25,21.33749962,26.23750114
30.35776582,0.8125,21.03750038,25.47500038
30.36782681,0.3875000179,21.1875,25.30000114
30.37789077,0.3625000119,21.63750076,26.38750076
30.3879526,1.399999976,21.91250038,27.02499962
30.39801666,1.399999976,20.88750076,26.86250114
30.4080826,1.262500048,20.58749962,27.01250076
30.41814572,0.9625000358,20.73750114,27.625
30.42821197,1.850000024,20.28750038,27.77499962
30.43827916,2.575000048,19.83749962,28.39999962
30.44834437,2.299999952,19.6875,28.55000114
30.45841108,2.275000095,20.13750076,28.55000114
30.46847489,2.862499952,20.71249962,29.1875
30.4785328,3.4375,20.70000076,29.5
30.48859463,3.587500095,21.0,28.58749962
30.49865624,4.625,20.70000076,27.66250038
30.50871921,4.775000095,20.85000038,27.20000076
30.51878608,4.474999905,22.02499962,27.0625
30.52885317,5.349999905,22.88750076,26.46249962
30.53891707,6.512500286,23.32500076,25.86250114
30.54897739,6.962500095,23.32500076,25.41250038
30.55904187,6.8125,23.625,24.80000114
30.56910718,7.099999905,25.08749962,24.36250114
30.57917129,7.375,26.26250076,23.61250114
30.58923562,7.675000191,26.11250114,22.22500038
30.59929431,8.262499809,26.41250038,21.76250076
30.60935624,8.112500191,27.14999962,21.47500038
30.61941754,8.112500191,28.02499962,20.08749962
30.62947718,8.087500572,28.47500038,20.26250076
30.63953983,8.537500381,28.47500038,20.72500038
30.64960062,9.275000572,28.76250076,19.96249962
30.65966108,9.850000381,28.76250076,19.97500038
30.66972546,10.73750019,28.4375,20.60000038
30.67979036,10.88749981,28.58749962,21.0625
30.68985395,10.88749981,28.58749962,21.36250114
30.69991332,11.75,29.17500114,21.08749962
30.7099764,12.625,29.45000076,20.46249962
30.72004457,13.07499981,28.72500038,20.0
30.73010827,14.11250019,28.70000076,19.55000114
30.74017166,15.57499981,29.5625,19.58749962
30.75023473,16.45000076,28.96249962,18.80000114
30.76029577,17.05000114,28.66250038,17.41250038
30.77035707,17.80000114,28.66250038,16.32500076
30.78042098,19.41250038,28.35000038,16.1875
30.79048416,19.70000076,28.5,16.1875
30.80054864,20.0,27.89999962,16.17500114
30.81061483,20.46249962,26.71249962,15.69999981
30.82067916,20.89999962,26.5625,15.38749981
30.8307464,22.21249962,27.0,14.78750038
30.84081155,22.66250038,27.0,14.1875
30.85087838,22.375,26.55000114,14.01249981
30.86094004,23.26250076,26.39999962,13.25
30.87100598,24.4375,25.80000114,12.46250057
30.88106838,24.58749962,25.95000076,12.16250038
30.89113286,24.875,26.375,12.02500057
30.9011951,25.02499962,26.22500038,12.17500019
30.91125838,25.32500076,26.07500076,12.32499981
30.92132062,25.625,25.35000038,12.47500038
30.93138635,26.64999962,25.47500038,12.47500038
30.94144405,26.5,25.77499962,12.47500038
30.95150463,25.17500114,25.92500114,12.77500057
30.96156431,24.72500038,26.375,13.10000038
30.97162447,24.72500038,26.67500114,14.5
30.98168504,23.23750114,26.82500076,16.03750038
30.9917452,21.77499962,27.0,16.78750038
31.00180989,21.32500076,27.30000114,18.02499962
31.01187161,19.97500038,28.47500038,19.60000038
31.02193697,18.36250114,29.22500038,21.13750076
31.03200082,17.1875,28.95000076,21.58749962
31.042064,15.85000038,28.96249962,22.66250038
31.05212619,14.67500019,29.41250038,22.96249962
31.06218775,13.33750057,30.46249962,23.75
31.07224812,13.0625,30.61250114,24.0625
31.08230989,12.02500057,30.33749962,24.51250076
31.09237051,10.85000038,30.78750038,24.5
31.10243077,9.962500572,30.95000076,24.96249962
31.11249155,8.9375,30.95000076,25.41250038
31.12255056,7.599999905,31.27499962,25.71249962
31.13261233,5.712500095,31.13750076,25.39999962
31.14267634,4.825000286,31.16250038,25.55000114
31.15273822,3.950000048,31.46249962,25.85000038
31.16280332,3.350000143,31.61250114,26.0
31.17287108,3.049999952,31.91250038,25.85000038
31.18293822,2.612499952,31.625,25.52499962
31.19299957,2.1875,31.17500114,25.36250114
31.20306098,1.300000072,31.92500114,25.21249962
31.21312749,1.137500048,32.22500229,25.82500076
31.22319525,1.737500072,31.92500114,26.14999962
31.23325879,1.737500072,31.77499962,26.30000114
31.24332603,1.287500024,32.22500229,26.30000114
31.25339004,1.587499976,31.92500114,27.0625
31.26345088,1.887500048,31.32500076,27.83749962
31.27351338,1.287500024,31.32500076,27.83749962
31.28357916,1.287500024,31.32500076,27.98750114
31.29364629,1.287500024,30.89999962,28.89999962
31.30370978,1.149999976,30.45000076,29.82500076
31.31378025,1.149999976,30.45000076,30.13750076
31.3238451,1.0,30.01250076,30.4375
31.33391114,1.149999976,29.71249962,31.03750038
31.34397463,1.0,29.5625,31.8125
31.35403931,1.4375,29.5625,31.82500076
31.36410176,1.887500048,29.11250114,31.36250114
31.3741653,1.600000024,28.8125,32.27500153
31.38422551,1.300000072,28.23750114,33.35000229
31.39428791,1.300000072,28.08749962,33.79999924
31.40435056,1.149999976,28.51250076,34.4375
31.41441739,0.4250000119,28.53750038,34.73749924
31.42447437,-0.02500000037,28.23750114,34.5625
31.43453515,-0.174999997,28.25,34.71250153
31.44459957,-0.3250000179,28.83749962,34.88750076
31.45466202,-0.462500006,28.6875,34.41250229
31.46472895,-0.462500006,28.25,33.95000076
31.47479082,-0.6125000119,28.6875,33.95000076
31.48485332,-1.337499976,29.28750038,33.5
31.49492114,-1.637500048,29.73750114,33.96250153
31.50498322,-1.487500072,29.0,34.41250229
31.51504671,-1.787500024,29.0,34.25
31.52511077,-2.525000095,29.60000038,34.71250153
31.53517713,-2.825000048,29.30000114,35.48749924
31.54524348,-3.125,29.45000076,35.95000076
31.55531254,-2.975000143,30.03750038,35.79999924
31.56537957,-2.6875,29.60000038,35.95000076
31.57544817,-2.975000143,29.30000114,36.10000229
31.58551796,-2.825000048,28.85000038,36.40000153
31.59558634,-1.637500048,28.39999962,37.1875
31.60565343,-0.3250000179,28.83749962,38.45000076
31.61572312,-0.174999997,28.38750076,38.60000229
31.62579088,-0.625,28.38750076,37.51250076
31.63585994,-0.625,28.98750114,36.88750076
31.64592775,0.25,29.26250076,37.375
31.65599332,0.25,29.70000076,37.22500229
31.66605187,0.25,29.85000038,36.46250153
31.67611874,0.400000006,30.0,35.98749924
31.68618536,0.8375000358,30.875,34.77500153
31.69625062,2.150000095,30.875,33.54999924
31.70631166,2.875,31.73750114,32.95000076
31.71637582,3.025000095,32.77500153,31.58749962
31.72643952,3.462500095,33.22500229,30.66250038
31.73650103,4.487500191,33.35000229,30.21249962
31.74656744,4.9375,33.5,29.14999962
31.75663421,4.925000191,34.08750153,28.07500076
31.76670077,5.525000095,34.23749924,27.77499962
31.77676749,6.25,34.08750153,26.53750038
31.78683181,6.700000286,34.08750153,26.07500076
31.79689551,7.262500286,34.95000076,26.5625
31.80696093,8.012499809,35.10000229,25.96249962
31.81702254,8.75,34.65000153,25.63750076
31.82708317,9.324999809,34.92499924,24.57500076
31.83714567,10.375,34.47500229,24.10000038
31.84720806,10.96250057,34.02500153,25.1875
31.85727426,11.23750019,34.61249924,25.97500038
31.86733499,11.23750019,34.46250153,26.75
31.87740161,11.53750038,34.16250229,27.36250114
31.88746603,11.23750019,33.57500076,27.66250038
31.89752885,10.8125,33.875,28.58749962
31.90759494,10.8125,33.72500229,28.88750076
31.91765963,10.8125,33.42499924,29.20000076
31.92771884,11.23750019,33.42499924,29.82500076
31.9377828,11.83750057,32.82500076,30.27499962
31.94784119,12.125,32.67499924,30.27499962
31.95790405,12.13749981,32.375,29.95000076
31.96796817,12.13749981,32.10000229,29.64999962
31.97802869,12.27500057,32.97500229,29.97500038
31.98809155,12.42500019,32.82500076,30.4375
31.99815353,12.27500057,32.8125,31.51250076
32.0082202,11.97500038,32.96250153,32.125
32.01828614,12.42500019,31.92500114,31.96249962
32.02835051,12.27500057,31.77499962,31.33749962
32.03841312,11.6875,31.95000076,30.57500076
32.04847806,11.53750038,31.80000114,30.57500076
32.05854374,11.53750038,31.80000114,31.33749962
32.0686102,12.13749981,31.80000114,31.8125
32.07867431,11.6875,32.67499924,31.51250076
32.08873905,11.08750057,33.27500153,31.82500076
32.09880296,10.9375,33.125,31.82500076
32.1088664,10.21250057,33.0,31.03750038
32.11893358,9.175000191,33.0,31.33749962
32.12899619,8.150000572,33.46250153,31.1875
32.1390614,7.712500095,33.16250229,31.32500076
32.14912744,6.400000095,32.73749924,31.92500114
32.1591901,4.925000191,33.20000076,31.625
32.16925301,4.337500095,32.90000153,31.60000038
32.17931832,3.462500095,32.92499924,31.89999962
32.18938082,2.725000143,32.78750229,32.20000076
32.19944385,2.575000048,33.07500076,30.96249962
32.2095091,2.0,33.38750076,30.96249962
32.21957447,2.0,33.52500153,31.75
32.22963671,2.0,33.375,32.20000076
32.23970056,1.850000024,33.08750153,32.04999924
32.24976197,1.112500072,33.38750076,32.04999924
32.25982249,0.6625000238,33.53750229,31.73750114
32.26988588,0.3875000179,32.96250153,31.5625
32.27995103,0.5124999881,33.23749924,32.5
32.2900164,0.3875000179,32.8125,33.10000229
32.3000814,-0.212500006,32.66250229,32.78750229
32.3101453,-0.6500000358,33.11249924,32.33750153
32.32020999,-1.375,32.97500229,32.3125
32.33027176,-0.6500000358,33.11249924,32.33750153
32.34033405,-0.212500006,33.11249924,32.79999924
32.35039843,-1.25,33.27500153,32.95000076
32.36045999,-1.225000024,32.375,32.9375
32.3705252,-0.9250000119,31.5,33.38750076
32.38059536,-0.8000000119,31.64999962,33.85000229
32.39066228,-1.675000072,32.10000229,32.91250229
32.40072447,-1.962499976,32.25,32.61249924
32.41078895,-1.962499976,32.10000229,32.46250153
32.4208551,-2.712500095,32.70000076,32.46250153
32.43091801,-2.862499952,33.0,32.3125
32.44098358,-2.5625,33.15000153,31.22500038
32.45105103,-2.6875,33.15000153,30.61250114
32.46111442,-2.987499952,33.29999924,29.98750114
32.4711789,-2.6875,33.875,28.30000114
32.48124452,-2.537500143,34.17499924,26.30000114
32.49131015,-2.837500095,34.625,24.76250076
32.50137744,-3.275000095,35.07500076,23.07500076
32.51144098,-2.837500095,35.67499924,21.53750038
32.52150546,-2.987499952,35.67499924,20.30000114
32.53156916,-3.275000095,35.82500076,19.67500114
32.5416328,-3.424999952,36.27500153,18.46249962
32.55169416,-3.575000048,36.27500153,16.58749962
32.56175332,-3.700000048,36.27500153,15.51249981
32.57181296,-4.587500095,36.29999924,14.57499981
32.58187478,-4.737500191,36.45000076,13.1875
32.59193572,-4.587500095,36.75,12.57499981
32.60199926,-5.012500286,36.46250153,11.9375
32.6120641,-4.712500095,36.16250229,11.16250038
32.62212733,-4.712500095,36.01250076,10.69999981
32.63218895,-4.712500095,36.16250229,10.55000019
32.64225176,-4.5625,36.3125,10.55000019
32.65231806,-5.012500286,36.61249924,9.3125
32.66238155,-5.599999905,36.33750153,8.375
32.67244364,-5.724999905,36.03750229,8.525000572
32.68250603,-5.875,36.48749924,8.074999809
32.69256572,-5.724999905,36.33750153,7.300000191
32.70262952,-6.025000095,36.33750153,8.074999809
32.71268963,-6.462500095,36.03750229,8.375
32.72275473,-6.462500095,35.60000229,8.824999809
32.73281947,-7.637500286,35.75,8.975000381
32.74288567,-8.800000191,35.47500229,8.637499809
32.75295187,-9.100000381,35.33750153,9.400000572
32.76301207,-9.25,35.03750229,10.02500057
32.77307489,-10.4375,35.21250153,10.32499981
32.78314056,-11.46250057,35.21250153,11.71250057
32.7932015,-11.46250057,34.91250229,12.77500057
32.80326473,-12.19999981,34.77500153,12.92500019
32.81332937,-12.92500019,33.90000153,14.15000057
32.82339291,-13.21250057,33.60000229,15.36250019
32.83345884,-13.96250057,33.75,16.13750076
32.84352541,-14.38749981,33.61249924,16.60000038
32.85359187,-14.83750057,33.46250153,17.05000114
32.8636578,-15.42500019,33.46250153,18.28750038
32.8737214,-16.30000114,33.03750229,18.57500076
32.88378499,-16.14999962,33.03750229,19.21249962
32.89384968,-16.30000114,32.75,18.27499962
32.90391056,-16.58749962,32.90000153,15.625
32.91397338,-16.13750076,33.20000076,13.78750038
32.92403244,-16.28750038,33.5,12.69999981
32.93409603,-16.4375,33.9375,11.78750038
32.94416046,-15.6875,33.35000229,10.69999981
32.95422786,-14.94999981,33.04999924,10.55000019
32.9642964,-14.375,33.91250229,9.025000572
32.97436166,-13.625,33.63750076,7.325000286
32.98442551,-12.73750019,33.3125,6.25
32.99449108,-11.71250057,33.76250076,4.862500191
33.00455556,-11.26249981,33.16250229,3.775000095
33.01461884,-10.07499981,33.15000153,1.9375
33.02468296,-7.737500191,32.97500229,0.7250000238
33.03474879,-6.400000095,32.52500153,-0.6625000238
33.04481098,-5.224999905,32.66250229,-2.049999952
33.05487317,-3.737499952,32.21250153,-3.4375
33.06493384,-1.825000048,32.1875,-4.8125
33.07499504,-0.0625,32.17499924,-5.724999905
33.08506025,0.8125,31.42500114,-6.349999905
33.09512525,2.450000048,31.25,-6.962500095
33.10519202,4.787499905,30.64999962,-7.5625
33.11525843,6.849999905,30.1875,-8.337500572
33.12532671,7.900000095,29.73750114,-9.574999809
33.13539655,8.650000572,28.55000114,-10.36250019
33.14546228,9.537500381,27.95000076,-11.30000019
33.15552749,10.5625,27.20000076,-11.44999981
33.16559114,11.01249981,26.17500114,-12.08750057
33.1756591,11.46250057,25.57500076,-12.55000019
33.18572463,12.65000057,25.27499962,-12.08750057
33.19579291,14.11250019,25.25,-11.91250038
33.20585806,14.6875,25.53750038,-12.0625
33.2159291,14.98750019,25.08749962,-12.0625
33.22598608,15.28750038,24.78750038,-11.91250038
33.23605036,14.86250019,24.95000076,-12.85000038
33.24611207,14.42500019,24.5,-13.78750038
33.25617457,14.42500019,24.22500038,-13.78750038
33.26624025,13.85000038,24.22500038,-14.11250019
33.2763053,13.40000057,24.22500038,-13.96250057
33.28636796,13.55000019,24.07500076,-13.8125
33.29643754,13.69999981,24.07500076,-13.8125
33.30650416,13.52500057,24.67500114,-13.32499981
33.31656999,13.82499981,24.80000114,-13.0
33.32663473,13.97500038,24.64999962,-12.40000057
33.33670228,14.5625,24.80000114,-11.61250019
33.34676411,15.57499981,24.9375,-10.97500038
33.35683145,15.57499981,25.36250114,-10.82499981
33.36689692,15.42500019,25.96249962,-10.8125
33.37696051,15.27500057,25.96249962,-9.725000381
33.38702681,15.85000038,25.80000114,-8.637499809
33.39709275,16.14999962,25.95000076,-8.787500381
33.40716166,16.0,26.10000038,-8.487500191
33.4172252,14.97500038,25.8125,-8.337500572
33.42728608,13.78750038,26.41250038,-8.1875
33.43734973,13.33750057,27.01250076,-7.862500191
33.44741239,12.91250038,27.60000038,-7.862500191
33.45747931,12.16250038,28.35000038,-7.224999905
33.46754223,12.01249981,28.0625,-7.550000191
33.47760275,12.46250057,27.89999962,-7.700000286
33.48766947,12.3125,28.35000038,-6.462500095
33.49773286,12.58750057,28.20000076,-6.775000095
33.50779676,13.1875,27.75,-6.775000095
33.51785895,13.92500019,27.60000038,-6.3125
33.52792452,14.80000019,27.57500076,-5.375
33.53798749,15.23750019,27.86250114,-5.050000191
33.54805072,15.96250057,28.01250076,-5.349999905
33.55811801,16.85000038,27.98750114,-4.887500286
33.56818426,17.14999962,28.28750038,-4.5625
33.57825015,17.27499962,28.28750038,-4.712500095
33.58831395,17.72500038,27.98750114,-4.5625
33.59838041,17.42500114,27.83749962,-4.887500286
33.60844447,17.57500076,27.53750038,-5.037499905
33.61850874,17.875,26.96249962,-5.050000191
33.62857447,17.875,27.23750114,-5.974999905
33.63864134,18.47500038,27.6875,-6.887500286
33.6487039,18.20000076,26.66250038,-7.375
33.65876874,17.76250076,25.77499962,-7.400000095
33.66883489,18.20000076,25.625,-7.550000191
33.67889671,18.64999962,25.17500114,-8.162500381
33.6889589,19.375,25.02499962,-8.637499809
33.69902286,20.41250038,24.57500076,-8.162500381
33.70908405,20.71249962,24.125,-7.862500191
33.71914577,21.01250076,23.375,-8.337500572
33.72920895,21.02499962,22.64999962,-8.824999809
33.73927697,21.61250114,23.07500076,-9.100000381
33.74934608,21.76250076,23.22500038,-9.574999809
33.75941322,21.61250114,22.80000114,-9.737500191
33.76947853,22.0625,21.76250076,-9.287500381
33.77954135,21.92500114,21.61250114,-9.587500572
33.78960343,21.77499962,22.20000076,-10.36250019
33.79966786,22.07500076,21.46249962,-10.375
33.80973213,22.21249962,21.46249962,-10.21250057
33.81979452,22.78750038,22.05000114,-9.587500572
33.82985994,22.78750038,22.625,-8.949999809
33.83992312,22.33749962,22.625,-8.650000572
33.84998733,22.1875,22.77499962,-8.337500572
33.86005338,22.1875,23.22500038,-8.337500572
33.87011562,21.73750114,23.375,-7.712500095
33.88017577,21.3125,23.375,-7.862500191
33.89024114,20.86250114,23.67500114,-7.862500191
33.90030452,20.86250114,23.97500038,-7.25
33.91036608,21.28750038,24.71249962,-7.075000286
33.9204265,21.28750038,25.13750076,-6.587500095
33.93048978,20.5625,25.3125,-6.612500191
33.9405514,19.96249962,25.88750076,-5.200000286
33.95061218,19.63750076,26.92500114,-3.950000048
33.96067353,19.0625,27.22500038,-3.799999952
33.97073593,18.17500114,27.67500114,-3.950000048
33.98080072,17.27499962,28.13750076,-4.099999905
33.99086728,15.8125,28.58749962,-3.475000143
34.00093437,15.94999981,28.88750076,-2.387500048
34.01099874,15.94999981,29.625,-1.450000048
34.02106588,15.05000019,30.22500038,-0.8375000358
34.031129,14.90000057,30.35000038,-0.5124999881
34.04119119,15.625,31.08749962,0.7375000119
34.0512578,16.0625,31.08749962,1.662500024
34.06132463,16.36250114,30.63750076,1.975000024
34.07138848,17.23750114,30.1875,2.424999952
34.08145312,17.97500038,29.73750114,3.200000048
34.09152067,17.53750038,29.58749962,2.725000143
34.1015865,17.6875,29.14999962,1.8125
34.11165062,18.28750038,28.70000076,1.637500048
34.1217164,17.98750114,28.55000114,1.487500072
34.13178202,18.875,28.39999962,1.175000072
34.14184843,19.32500076,28.6875,1.037500024
34.15191843,19.75,28.6875,0.8874999881
34.16198515,20.35000038,27.9375,0.5749999881
34.17205072,21.23750114,27.1875,0.25
34.18211848,22.4375,26.0,0.237499997
34.19218791,23.16250038,25.25,0.237499997
34.2022491,23.61250114,24.64999962,-0.400000006
34.21231067,24.51250076,23.47500038,-0.7250000238
34.22237593,25.25,22.4375,-0.7375000119
34.23243905,26.14999962,21.6875,-1.0625
34.24250515,27.17500114,20.9375,-1.524999976
34.25256671,27.92500114,19.76250076,-1.700000048
34.26263036,28.66250038,19.16250038,-2.162500143
34.27269338,28.82500076,18.27499962,-2.637500048
34.28275634,29.57500076,16.64999962,-2.825000048
34.2928166,30.17500114,15.46250057,-2.375
34.30287739,30.32500076,14.86250019,-2.075000048
34.31294384,31.51250076,14.5625,-2.075000048
34.32300983,31.63750076,14.26249981,-1.149999976
34.33307754,31.8125,13.66250038,-0.5375000238
34.3431402,32.38750076,13.21250057,-0.08749999851
34.35320275,32.23749924,12.78750038,0.212500006
34.36326827,31.96249962,12.1875,0.212500006
34.37333119,32.23749924,12.1875,1.450000048
34.38339536,32.38750076,12.48750019,1.774999976
34.39345801,32.23749924,12.48750019,1.300000072
34.40352223,32.23749924,12.1875,1.600000024
34.41358629,32.38750076,12.61250019,1.774999976
34.42365244,31.8125,12.63749981,2.537500143
34.43371249,31.66250038,12.1875,3.462500095
34.44377603,32.23749924,11.73750019,4.075000286
34.45384265,32.53750229,11.58750057,5.612500191
34.46390681,32.08750153,11.88749981,6.849999905
34.47397041,31.63750076,12.03750038,7.625
34.48403504,32.52500153,11.86250019,8.087500572
34.49410103,32.67499924,11.86250019,8.412500381
34.50416296,31.78750038,11.58750057,8.387499809
34.51422895,31.9375,11.28750038,9.012499809
34.52429483,32.22500229,11.28750038,9.324999809
