Time (s),Acceleration x (m/s^2),Acceleration y (m/s^2),Acceleration z (m/s^2)
8.404421137,1.049252748,-9.509077072,-1.330409408
8.409976137,1.022931695,-9.443274498,-1.300499082
8.415531137,0.9936196208,-9.388239861,-1.261017561
8.421086137,0.9248259664,-9.345767021,-1.238883972
8.426641137,0.8506484628,-9.337391853,-1.237089276
8.432196137,0.8009973764,-9.357132912,-1.236491084
8.437751137,0.718445003,-9.420542717,-1.286740422
8.443306137,0.6442674994,-9.494720459,-1.373480201
8.448861137,0.5874379873,-9.576076508,-1.46321106
8.454416137,0.5407779217,-9.667601585,-1.540977836
8.459971137,0.4648058116,-9.745368004,-1.599003673
8.465526137,0.4791627228,-9.801599503,-1.643270969
8.471081137,0.4881358147,-9.835697174,-1.671984792
8.476636137,0.4959124923,-9.848259926,-1.678565025
8.482191137,0.4803591371,-9.83150959,-1.66600275
8.487746137,0.4618147612,-9.813564301,-1.659422517
8.493301137,0.4881358147,-9.781859398,-1.660020709
8.498856137,0.4803591371,-9.747760773,-1.672582984
8.504411137,0.4594219327,-9.728618622,-1.690529227
8.509966137,0.4253242314,-9.708877563,-1.71924305
8.515521137,0.3780659735,-9.699306488,-1.740180254
8.521076137,0.3457628787,-9.668798447,-1.746760488
8.526631137,0.35174492,-9.62154007,-1.737189293
8.532186137,0.3978067636,-9.591629982,-1.701296926
8.537741137,0.4576273263,-9.55753231,-1.666600943
8.543296137,0.4965106845,-9.534201622,-1.648056626
8.548851137,0.5294120312,-9.525827408,-1.659422517
8.554406137,0.590429008,-9.521040916,-1.688734531
8.559961137,0.6592226624,-9.569496155,-1.741376638
8.565516137,0.7621139884,-9.607182503,-1.797608018
8.571071137,0.8584251404,-9.647860527,-1.847259045
8.576626137,0.9409775138,-9.693922997,-1.871187329
8.582181137,1.01874423,-9.675976753,-1.892722726
8.587736137,1.067797065,-9.614361763,-1.908276081
8.593291137,1.118046403,-9.555737495,-1.919641972
8.598846137,1.158724308,-9.496515274,-1.903490424
8.604401137,1.189831018,-9.435498238,-1.871785522
8.609956137,1.212562919,-9.396614075,-1.823929071
8.615511137,1.232303619,-9.343374252,-1.774278045
8.621066137,1.245464206,-9.317052841,-1.713261008
8.626621137,1.272981644,-9.311071396,-1.667797327
8.632176137,1.308874011,-9.339784622,-1.636092424
8.637731137,1.347159147,-9.381061554,-1.599601984
8.643286137,1.37587297,-9.429515839,-1.596012712
8.648841137,1.398006678,-9.464810371,-1.586441398
8.654396137,1.413560033,-9.49232769,-1.575673699
8.659951137,1.418943882,-9.523433685,-1.564906001
8.665506137,1.454237938,-9.522237778,-1.580459356
8.671061137,1.482353687,-9.532406807,-1.557129383
8.676616137,1.481755376,-9.553344727,-1.532602906
8.682171137,1.523629785,-9.543174744,-1.518844128
8.687726137,1.562513232,-9.532406807,-1.524227977
8.693281137,1.581057549,-9.546165466,-1.528415442
8.698836137,1.616351724,-9.559925079,-1.572084427
8.704391137,1.591825247,-9.617950439,-1.600798368
8.709946137,1.628315806,-9.637093544,-1.607976794
8.715501137,1.696511269,-9.641879082,-1.619342685
8.721056137,1.762912035,-9.668798447,-1.604387641
8.726611137,1.811366796,-9.674181938,-1.608574986
8.732166137,1.852044702,-9.675976753,-1.616949916
8.737721137,1.891526341,-9.681958199,-1.595414519
8.743276137,1.936391711,-9.656833649,-1.549950838
8.748831137,1.978864312,-9.618548393,-1.476969719
8.754386137,1.996810555,-9.581459999,-1.389631748
8.759941137,1.992024899,-9.566504478,-1.286740422
8.765496137,1.97527504,-9.53898716,-1.147358418
8.771051137,1.925624013,-9.515657425,-0.9858429432
8.776606137,1.860419631,-9.504291534,-0.8195417523
8.782161137,1.828116536,-9.494720459,-0.665802896
8.787716137,1.799402595,-9.486943245,-0.5216353536
8.793271137,1.789831281,-9.485747337,-0.3726821244
8.798826137,1.78684032,-9.519845009,-0.27577281
8.804381137,1.769492388,-9.573683739,-0.204586342
8.809936137,1.759921074,-9.650852203,-0.1848455518
8.815491137,1.726421595,-9.72323513,-0.2123630047
8.821046137,1.695314884,-9.775876999,-0.3152543902
8.826601137,1.682154298,-9.801001549,-0.4307080805
8.832156137,1.688136339,-9.814162254,-0.5551348329
8.837711137,1.70249331,-9.801599503,-0.6831508875
8.843266137,1.684547186,-9.776474953,-0.8213363886
8.848821137,1.661815286,-9.736394882,-0.9900303483
8.854376137,1.631306887,-9.685547829,-1.15393877
8.859931137,1.629512191,-9.629914284,-1.32801652
8.865486137,1.607976794,-9.586245537,-1.476969719
8.871041137,1.589432478,-9.562317848,-1.588235974
8.876596137,1.568495274,-9.531210899,-1.670190215
8.882151137,1.529013634,-9.531210899,-1.737189293
8.887706137,1.493719578,-9.53898716,-1.761715651
8.893261137,1.470987678,-9.564710617,-1.787438512
8.898816137,1.424327731,-9.597013474,-1.822134495
8.904371137,1.366301775,-9.593423843,-1.869392633
8.909926137,1.304088354,-9.585049629,-1.926820397
8.915481137,1.239482164,-9.569496155,-1.977667928
8.921036137,1.19581306,-9.579665184,-2.01475668
8.926591137,1.15393877,-9.574281693,-2.015953064
8.932146137,1.133599758,-9.591629982,-2.015354872
8.937701137,1.097707391,-9.585049629,-1.957328916
8.943256137,1.037288666,-9.587442398,-1.899302959
8.948811137,0.9672985673,-9.567103386,-1.844866276
8.954366137,0.8476574421,-9.533603668,-1.800000787
8.959921137,0.7639086246,-9.512666702,-1.734796405
8.965476137,0.7178468108,-9.471988678,-1.665404558
8.971031137,0.732203722,-9.440881729,-1.586441398
8.976586137,0.7974081635,-9.401400566,-1.501496196
8.982141137,0.8638089895,-9.352347374,-1.413560033
8.987696137,0.8931210637,-9.334401131,-1.343569875
8.993251137,0.9062815905,-9.296115875,-1.289133191
8.998806137,0.9164510965,-9.322437286,-1.230509043
9.004361137,0.9200403094,-9.337990761,-1.198205948
9.009916137,0.9433703423,-9.362516403,-1.185643673
9.015471137,1.062413216,-9.39840889,-1.168893814
9.021026137,1.217348576,-9.410373688,-1.157527924
9.026581137,1.39860487,-9.433703423,-1.127019525
9.032136137,1.585843205,-9.411569595,-1.124028444
9.037691137,1.744965911,-9.351150513,-1.127617717
9.043246137,1.883749604,-9.313464165,-1.134796143
9.048801137,2.020140409,-9.281759262,-1.163509965
9.054356137,2.130808592,-9.259625435,-1.20717907
9.059911137,2.227119684,-9.293125153,-1.267597795
9.065466137,2.27078867,-9.325428009,-1.372882009
9.071021137,2.226521492,-9.343972206,-1.495514154
9.076576137,2.103291035,-9.385847092,-1.629512191
9.082131137,1.957328916,-9.421739578,-1.7670995
9.087686137,1.798804402,-9.486345291,-1.8855443
9.093241137,1.625923038,-9.533603668,-2.023131609
9.098796137,1.430309772,-9.617352486,-2.155334949
9.104351137,1.203589797,-9.729216576,-2.285743713
9.109906137,0.9649057388,-9.864411354,-2.431705952
9.115461137,0.7513462901,-10.0331049,-2.557329178
9.121016137,0.5527420044,-10.21376324,-2.713460922
9.126571137,0.4277170599,-10.43270683,-2.87318182
9.132126137,0.2608176768,-10.61874866,-3.057429075
9.137681137,0.04905286431,-10.76650524,-3.21954298
9.143236137,-0.1447657645,-10.77069283,-3.394817114
9.148791137,-0.4689932466,-10.70489025,-3.574278831
9.154346137,-0.7788637877,-10.53200912,-3.547359467
9.159901137,-1.505085468,-10.27657509,-3.59043026
9.165456137,-1.613360643,-10.35194874,-3.819543123
9.171011137,-1.465005636,-10.32024384,-3.823730469
9.176566137,-1.469791293,-10.23709393,-3.806382656
9.182121137,-1.490728498,-10.07019424,-3.749552965
9.187676137,-1.60977149,-9.87398243,-3.697509289
9.193231137,-1.815554142,-9.682557106,-3.653840065
9.198786137,-2.093121529,-9.535996437,-3.628715515
9.204341137,-2.119442701,-9.464810371,-3.544966698
9.209896137,-2.036292076,-9.400203705,-3.414557934
9.215451137,-2.087139606,-9.355338097,-3.300300598
9.221006137,-2.260619164,-9.303893089,-3.235096216
9.226561137,-2.446063042,-9.28295517,-3.170490026
9.232116137,-2.506481647,-9.262616158,-3.119642496
9.237671137,-2.438286304,-9.270991325,-3.014956474
9.243226137,-2.2259233,-9.285946846,-2.894119024
9.248781137,-1.92203474,-9.272188187,-2.737389088
9.254336137,-1.660618901,-9.205786705,-2.569293261
9.259891137,-1.408774376,-9.180064201,-2.39222455
9.265446137,-1.153340459,-9.151947975,-2.21156621
9.271001137,-0.9014959335,-9.132805824,-1.999203324
9.276556137,-0.641874671,-9.152546883,-1.758724689
9.282111137,-0.3972085714,-9.19621563,-1.493121386
9.287666137,-0.1956132501,-9.250652313,-1.165304661
9.293221137,0.02691925503,-9.328418732,-0.8075776696
9.298776137,0.2650051117,-9.371489525,-0.4115654826
9.304331137,0.4073780477,-9.445069313,-0.07896314561
9.309886137,0.4217349887,-9.546764374,0.2344966233
9.315441137,0.3834498227,-9.661619186,0.5288137794
9.320996137,0.3002992272,-9.827920914,0.7680960894
9.326551137,0.2452643216,-9.991230965,1.004985452
9.332106137,0.2679961324,-10.15992451,1.163509965
9.337661137,0.342173636,-10.31964588,1.272981644
9.343216137,0.4372883439,-10.47817039,1.299900889
9.348771137,0.5174478889,-10.6109724,1.247258782
9.354326137,0.500099957,-10.70130062,1.082154036
9.359881137,0.3966103494,-10.71506023,0.8309076428
9.365436137,0.2195414752,-10.65284634,0.4821537733
9.370991137,0.03290131316,-10.57747269,0.1214357466
9.376546137,-0.1184447184,-10.44826031,-0.242273286
9.382101137,-0.313459754,-10.32622623,-0.5724828243
9.387656137,-0.5521438122,-10.16710377,-0.903888762
9.393211137,-0.7190431952,-9.970891953,-1.240080357
9.398766137,-0.8410771489,-9.753743172,-1.536790371
9.404321137,-0.9571290612,-9.547362328,-1.850250125
9.409876137,-1.039681435,-9.329017639,-2.199003935
9.415431137,-0.9996016622,-9.137591362,-2.401197433
9.420986137,-0.9828519225,-8.985049248,-2.574079037
9.426541137,-1.040877819,-8.851051331,-2.774477959
9.432096137,-1.045065284,-8.794819832,-2.955136061
9.437651137,-1.030110121,-8.772686005,-3.07836628
9.443206137,-1.009172916,-8.827720642,-3.145365477
9.448761137,-1.025922656,-8.933005333,-3.255435228
9.454316137,-1.050449133,-9.023932457,-3.333800077
9.459871137,-1.069591761,-9.122636795,-3.356531858
9.465426137,-1.124626637,-9.258428574,-3.31525588
9.470981137,-1.133599758,-9.425328255,-3.236890793
9.476536137,-1.10010016,-9.610772133,-3.132204771
9.482091137,-1.028913736,-9.777072906,-2.990430117
9.487646137,-1.012163997,-9.920642853,-2.849851847
9.493201137,-0.9924231768,-10.10788059,-2.707478762
9.498756137,-0.9714859724,-10.34477043,-2.522035122
9.504311137,-0.9475577474,-10.55773163,-2.295913219
9.509866137,-0.9098708034,-10.66600704,-2.040479422
9.515421137,-0.9068797827,-10.67856884,-1.709073544
9.520976137,-0.9445667267,-10.59661484,-1.332203984
9.526531137,-1.022333503,-10.41894817,-0.9284151793
9.532086137,-1.077966571,-10.25623608,-0.5641079545
9.537641137,-1.162313581,-10.0839529,-0.2530409992
9.543196137,-1.237089276,-9.931410789,-0.03050848842
9.548751137,-1.312463164,-9.839286804,0.1016949639
9.554306137,-1.339980721,-9.799206734,0.1369891018
9.559861137,-1.400997639,-9.853045464,0.1178465188
9.565416137,-1.491924882,-9.974481583,0.06221338734
9.570971137,-1.6181463,-10.0965147,-0.0005982056609
9.576526137,-1.763510346,-10.23051357,-0.08255238086
9.582081137,-1.931606054,-10.36271667,-0.1914258152
9.587636137,-2.143969059,-10.52662468,-0.2691925466
9.593191137,-2.393420935,-10.72044373,-0.3972085714
9.598746137,-2.696112871,-10.98365402,-0.5270192027
9.604301137,-2.980858803,-11.26301575,-0.6406782866
9.609856137,-3.166900873,-11.50469112,-0.8159525394
9.615411137,-3.453441381,-11.81934738,-0.9355936646
9.620966137,-3.547957659,-12.14536953,-0.9912267923
9.626521137,-3.491128206,-12.44327641,-1.039681435
9.632076137,-3.354737282,-12.69751358,-1.083948612
9.637631137,-3.122035265,-12.86501122,-1.080359459
9.643186137,-2.797807932,-12.94636726,-1.104287624
9.648741137,-2.740978241,-12.64487171,-1.188634634
9.654296137,-2.293520451,-12.63829136,-1.510469317
9.659851137,-1.987837434,-12.38883877,-1.819741607
9.665406137,-2.182254314,-12.02991581,-1.759921074
9.670961137,-2.525624275,-11.63689518,-1.350150228
9.676516137,-2.782254457,-11.31685448,-0.5252245665
9.682071137,-3.227319479,-11.07518005,0.6909275651
9.687626137,-4.138386726,-11.02313614,2.998805046
9.693181137,-5.048855782,-11.10927773,6.401398659
9.698736137,-5.450251579,-11.42393398,7.08036232
9.704291137,-4.774279594,-12.05324554,5.498108387
9.709846137,-3.443271875,-12.50967693,3.684946775
9.715401137,-1.999203324,-13.00379467,2.596810818
9.720956137,-0.5958128572,-13.50329685,2.122433662
9.726511137,0.4983053207,-14.00818157,1.707877159
9.732066137,1.623530149,-14.58664703,1.40997076
9.737621137,2.124228239,-14.75115299,0.9720842242
9.743176137,2.136790514,-14.65364552,0.4115654826
9.748731137,2.088335991,-14.36770344,0.07537391037
9.754286137,2.179263115,-14.28455257,-0.2584248483
9.759841137,2.362912416,-14.2378931,-0.6759724021
9.765396137,2.68175602,-14.17687607,-0.9744769931
9.770951137,2.876172781,-14.04467297,-1.333400369
9.776506137,2.756531715,-13.76231956,-1.676172256
9.782061137,2.800200701,-13.81615829,-2.043470621
9.787616137,2.711068153,-13.79581928,-2.465205431
9.793171137,2.332403898,-13.48056412,-2.90967226
9.798726137,1.983649969,-13.06899929,-3.053839922
9.804281137,1.69950223,-12.61914825,-2.978466034
9.809836137,1.099501967,-11.99342537,-2.772084951
9.815391137,0.07956135273,-11.37846947,-2.55792737
9.820946137,-1.079761267,-10.8867445,-2.717648268
9.826501137,-1.818545222,-10.54457092,-2.654238462
9.832056137,-2.361716032,-10.20359421,-2.172084808
9.837611137,-2.877369165,-9.946365356,-1.627119422
9.843166137,-3.258426189,-9.770493507,-0.7908278704
9.848721137,-3.785445452,-9.637093544,0.02931207791
9.854276137,-4.362713814,-9.568299294,0.08135596663
9.859831137,-4.957928658,-9.466604233,-0.05862415582
9.865386137,-5.199005604,-9.366106033,-0.2584248483
9.870941137,-5.127819061,-9.418149948,-0.3529413342
9.876496137,-5.132604599,-9.515657425,-0.6580262184
9.882051137,-5.338387489,-9.801001549,-0.9056833982
9.887606137,-5.044668198,-9.929018021,-0.7627122402
9.893161137,-4.57866621,-10.02293587,-0.3086741269
9.898716137,-3.083152056,-10.21615601,0.1842473447
9.904271137,-1.628315806,-10.17607689,0.4612165689
9.909826137,-0.1884347796,-9.893125534,0.6305087805
9.915381137,0.6113662124,-9.574879646,0.9924231768
9.920936137,0.8177471161,-9.300303459,1.191625714
9.926491137,1.204786181,-8.946763992,1.576870084
9.932046137,1.342971683,-8.614759445,1.674975872
9.937601137,0.6454638839,-8.269595146,1.532602906
9.943156137,0.4875376225,-7.721040249,1.19880414
9.948711137,0.5557330847,-7.237690449,1.02711916
9.954266137,0.2727817893,-6.877570629,0.8590233326
9.959821137,0.08673982322,-6.480959892,0.8865407705
9.965376137,-0.204586342,-6.125027657,0.9481559992
9.970931137,-0.3110669553,-5.767300606,0.9385846853
9.976486137,-1.090528965,-5.600401402,0.679561615
9.982041137,-1.790429592,-5.521438122,0.3655036688
9.987596137,-2.402393818,-5.517848969,-0.08853443712
9.993151137,-2.056032896,-5.5154562,-0.06819544733
9.998706137,-2.414358139,-5.67039156,-0.4654040039
10.00426114,-2.20618248,-5.766104221,-0.7196413875
10.00981614,-1.820937991,-5.742176056,-0.6346961856
10.01537114,-2.120040894,-5.68175745,-0.6987041831
10.02092614,-1.631905079,-5.529214859,-0.2817548811
10.02648114,-0.9397810698,-5.303092957,0.3242274821
10.03203614,-0.9194421172,-5.041079044,0.5042873621
10.03759114,-1.367498159,-4.740181446,0.5856433511
10.04314614,-1.712662816,-4.429712772,0.5790630579
10.04870114,-1.627717614,-4.151547432,0.6616154313
10.05425614,-1.665404558,-3.930809498,0.5539384484
10.05981114,-2.34676075,-3.805784464,0.2715853751
10.06536614,-2.827120066,-3.663411379,0.006580262445
10.07092114,-2.963510752,-3.664009571,-0.0185443759
10.07647614,-3.442075491,-3.702294827,-0.2039881349
10.08203114,-3.57128787,-3.744767427,-0.2201396823
10.08758614,-4.114458561,-3.868596077,-0.1926222295
10.09314114,-4.719842434,-4.048057556,-0.1112662554
10.09869614,-5.170291424,-4.34775877,-0.08434699476
10.10425114,-5.840281963,-4.663012981,-0.06879365444
10.10980614,-6.704689026,-5.062016487,-0.01256231871
10.11536114,-7.641479015,-5.567500114,-0.002991028363
10.12091614,-7.861618996,-6.120840549,0.1166501045
10.12647114,-7.852645874,-6.718447685,0.2123630047
10.13202614,-8.154141426,-7.262216568,0.1214357466
10.13758114,-8.590232849,-7.701299667,-0.1136590764
10.14313614,-8.253443718,-8.291728973,-0.2494517565
10.14869114,-7.831708431,-8.684151649,-0.01375873014
10.15424614,-7.295117855,-9.032905579,0.2859423161
10.15980114,-6.646663189,-9.312267303,0.717248559
10.16535614,-6.030511379,-9.674779892,1.366301775
10.17091114,-5.484947681,-10.08215809,2.004587173
10.17646614,-5.078765869,-10.65105152,2.356930256
10.18202114,-5.061418056,-11.30668545,2.335394859
10.18757614,-5.601597786,-11.94018459,1.784447432
10.19313114,-6.510870457,-12.70708466,0.5724828243
10.19868614,-7.348956585,-13.37767315,-1.155135155
10.20424114,-7.484749317,-14.0488596,-2.755933523
10.20979614,-7.152745247,-14.8277235,-3.282952785
10.21535114,-6.325426579,-15.62573051,-2.691327333
10.22090614,-4.975874901,-16.53679657,-1.490728498
10.22646114,-2.738585472,-17.21097565,-0.6765705943
10.23201614,0.04426721856,-17.3186512,-0.5318048596
10.23757114,2.558525562,-17.21576118,-0.004785645287
10.24312614,4.270590305,-16.55534172,1.200598717
10.24868114,4.944169998,-15.21476269,1.775474429
10.25423614,4.496113777,-13.64148235,1.037886858
10.25979114,3.294318676,-12.11426258,-0.3535395563
10.26534614,2.069791555,-10.78804111,-0.9092726111
10.27090114,1.557727575,-9.901499748,-1.17068851
10.27645614,1.271785259,-9.354142189,-0.9858429432
10.28201114,1.107278705,-9.157930374,-0.5635097623
10.28756614,0.8500502706,-9.053842545,-0.3212364316
10.29312114,0.7250252366,-9.090332985,-0.2608176768
10.29867614,0.4169493318,-9.275776863,-0.204586342
10.30423114,-0.03888336942,-9.476774216,-0.2321037948
10.30978614,-0.4157529473,-9.95055294,-0.1992024779
10.31534114,-0.4815555513,-10.82812023,-0.1333998591
10.32089614,-0.6412764788,-11.68235874,-0.03409772366
10.32645114,-1.060618639,-12.52762318,-0.04965107143
10.33200614,-1.328614831,-13.22453213,-0.1136590764
10.33756114,-1.533799291,-13.75334644,-0.1776670814
10.34311614,-1.720439434,-14.43649769,-0.204586342
10.34867114,-1.94177556,-15.11127281,-0.1980060786
10.35422614,-1.888535261,-15.74477291,-0.3032902777
10.35978114,-1.864008784,-16.24846268,-0.456430912
10.36533614,-2.19780755,-16.95015717,-0.8213363886
10.37089114,-2.496312141,-17.52622986,-1.085145116
10.37644614,-2.73798728,-17.84985924,-1.587637782
10.38200114,-2.674577475,-17.57588005,-1.728216171
10.38755614,-2.429911375,-17.25464439,-1.818545222
10.39311114,-2.129612207,-16.52064514,-1.855035782
10.39866614,-1.720439434,-15.60239983,-1.79521513
10.40422114,-1.402792215,-14.37428379,-1.453041553
10.40977614,-1.233500123,-13.12881947,-1.066002488
10.41533114,-1.427916884,-11.94556904,-0.6646065116
10.42088614,-1.816152334,-10.97109222,-0.3170489967
10.42644114,-2.177468538,-10.22333431,-0.05503492057
10.43199614,-2.587837696,-9.60419178,0.1806581169
10.43755114,-2.995215654,-9.007183075,0.3702892959
10.44310614,-3.510869026,-8.548956871,0.4426721931
10.44866114,-3.903890133,-8.103892326,0.5120640397
10.45421614,-4.175475597,-7.56670332,0.6000002623
10.45977114,-4.421338081,-6.889534473,0.5258227587
10.46532614,-4.547559261,-6.200401783,0.3637090325
10.47088114,-4.678566456,-5.571687698,0.2506481707
10.47643614,-4.674378872,-5.139782906,0.1040877849
10.48199114,-4.609772682,-4.825725079,-0.1076770201
10.48754614,-4.454837322,-4.535595417,-0.2404786795
10.49310114,-4.162314892,-4.274179459,-0.3349951804
10.49865614,-4.022335052,-4.049852371,-0.5623133183
10.50421114,-4.241876125,-3.932604074,-0.7477570772
10.50976614,-4.348955154,-3.9170506,-1.068395257
10.51532114,-4.277768612,-3.893122435,-1.376471281
10.52087614,-4.106681824,-3.820739508,-1.616949916
10.52643114,-3.843471289,-3.826721668,-1.905285001
10.53198614,-3.559323788,-3.876372576,-2.223530531
10.53754114,-3.208176851,-4.036691666,-2.560320139
10.54309614,-2.86480689,-4.319643021,-2.915056229
10.54865114,-2.464607239,-4.650450706,-3.297907829
10.55420614,-2.058425665,-4.987240791,-3.647259951
10.55976114,-1.645663738,-5.267200947,-3.987040758
10.56531614,-1.282552958,-5.484947681,-4.200600147
10.57087114,-1.061815023,-5.630311489,-4.436891556
10.57642614,-0.9044869542,-5.697310925,-4.655834675
10.58198114,-0.7663014531,-5.83310318,-4.842474937
10.58753614,-0.670588553,-6.073582172,-5.117649555
10.59309114,-0.6352944374,-6.434898376,-5.432903767
10.59864614,-0.5886343718,-6.780063152,-5.498108387
10.60420114,-0.4522434771,-7.098308563,-5.499304771
10.60975614,-0.3637090325,-7.405188084,-5.446662426
10.61531114,-0.2470589429,-7.749155998,-5.343770981
10.62086614,-0.199800685,-8.184649467,-5.121836662
10.62642114,-0.1782652885,-8.581260681,-4.801796913
10.63197614,-0.1459621787,-8.955737114,-4.534996986
10.63753114,-0.1495514214,-9.226723671,-4.320839405
10.64308614,-0.1830509305,-9.266205788,-4.103690624
10.64864114,0.06161518395,-9.257232666,-3.919443607
10.65419614,0.352343142,-9.203393936,-3.619742393
10.65975114,0.7639086246,-9.119645119,-3.267399311
10.66530614,1.094118118,-9.034101486,-2.894119024
10.67086114,1.342971683,-9.095118523,-2.356930256
10.67641614,1.419542074,-9.247062683,-1.35912323
10.68197114,1.137787223,-9.637691498,1.092323542
10.68752614,-0.0466600433,-10.5858469,7.042675018
10.69308114,-1.966900229,-11.46580791,10.43928719
10.69863614,-3.198605776,-11.82532978,8.77089119
10.70419114,-3.696312666,-11.97308636,5.78584528
10.70974614,-3.716053486,-12.22134209,2.770888567
10.71530114,-3.672384501,-12.61735344,0.4737788737
10.72085614,-3.876971006,-13.07857037,-0.9750752449
10.72641114,-4.415356159,-13.52064419,-1.601994753
10.73196614,-5.157131195,-14.01416397,-1.725823283
10.73752114,-5.981458187,-14.49571991,-1.52542448
10.74307614,-6.484549522,-15.23749447,-1.524227977
10.74863114,-6.765107632,-15.89492226,-1.611566067
10.75418614,-6.841079712,-16.54098511,-1.828714728
10.75974114,-6.777071953,-17.01416588,-2.210968018
10.76529614,-6.733402729,-17.25344849,-2.586043119
10.77085114,-6.829115868,-17.31566048,-2.924627542
10.77640614,-7.161718369,-17.26361656,-3.18006134
10.78196114,-7.530212879,-17.15175247,-3.204587698
10.78751614,-7.402196884,-16.96571159,-2.880360365
10.79307114,-6.488138676,-16.71326828,-2.277967215
10.79862614,-5.364109993,-16.55952835,-1.558325768
10.80418114,-4.461417675,-16.59781456,-0.7950153351
10.80973614,-3.55992198,-16.79821396,0.07716853172
10.81529114,-2.748754978,-16.9292202,1.051047325
10.82084614,-2.005185366,-16.85623932,1.994417667
10.82640114,-1.069591761,-16.64566994,2.897708178
10.83195614,-0.4384847581,-16.30230141,3.561716557
10.83751114,0.02213360928,-15.96132374,3.854837179
10.84306614,0.4115654826,-15.70648766,3.878765583
10.84862114,0.6897311211,-15.54078484,3.617349625
10.85417614,0.5258227587,-15.35773373,3.086741209
10.85973114,-0.1226321608,-15.04786301,2.571087837
10.86528614,-0.6311069727,-14.73500156,2.166102648
10.87084114,-0.6346961856,-14.44427395,1.744965911
10.87639614,0.003589233849,-14.24148178,1.297508121
10.88195114,0.641874671,-13.99920845,0.7142575383
10.88750614,1.220339537,-13.73719501,0.2177468538
10.89306114,1.424327731,-13.44527054,-0.2727817893
10.89861614,1.310668588,-13.26221943,-0.679561615
10.90417114,1.060020447,-13.14138222,-1.021735311
10.90972614,0.912861824,-13.00858021,-1.292722464
10.91528114,0.8195417523,-12.86381435,-1.597209096
10.92083614,0.6825526357,-12.55454254,-1.921436548
10.92639114,0.5030909777,-12.23988628,-2.168495417
10.93194614,0.4097708762,-11.9718895,-2.283949137
10.93750114,0.2530409992,-11.6021986,-2.380260229
10.94305614,0.1489532143,-11.31924725,-2.485544443
10.94861114,0.1597209126,-11.26840019,-2.739781857
10.95416614,-0.05383851007,-11.05962658,-3.416950703
10.95972114,-0.5294120312,-10.65942669,-5.763113499
10.96527614,-2.183450699,-10.26042366,-9.790233612
10.97083114,-3.795614958,-9.887741089,-11.67398357
10.97638614,-4.666004181,-9.586245537,-12.85065365
10.98194114,-5.151747227,-9.206983566,-13.37528038
10.98749614,-4.78385067,-8.8977108,-13.41835117
10.99305114,-4.29691124,-8.778069496,-12.79202938
10.99860614,-3.40498662,-8.961120605,-10.60199928
11.00416114,-2.57766819,-9.009575844,-7.646862984
11.00971614,-2.517847538,-8.803194046,-4.993820667
11.01527114,-3.022733212,-8.688937187,-1.792224169
11.02082614,-3.43609333,-8.334799767,2.120040894
11.02638114,-3.482753277,-7.715656757,4.356133461
11.03193614,-3.060420275,-7.175477028,3.774677753
11.03749114,-2.474178553,-6.917650223,3.09272337
11.04304614,-1.68275249,-6.652047157,3.124428272
11.04860114,-0.2578266263,-6.455835342,4.234697819
11.05415614,1.359721422,-6.285346985,5.915057659
11.05971114,2.700300455,-6.301498413,6.917052269
11.06526614,2.725425005,-6.297310829,6.584449768
11.07082114,2.809173822,-6.430112839,5.533402443
11.07637614,2.998206854,-6.462415695,4.241876125
11.08193114,3.098705292,-6.358327866,3.067598581
11.08748614,2.503490686,-6.129813194,2.052443504
11.09304114,2.112264156,-5.935994625,1.458425403
11.09859614,1.925624013,-5.769693375,0.9577272534
11.10415114,1.327418327,-5.556134224,0.1322034448
11.10970614,1.396211982,-5.21994257,-0.3876372576
11.11526114,0.8518448472,-4.896911621,-0.9349954724
11.12081614,0.7507480979,-4.486542225,-1.231705427
11.12637114,0.7633104324,-4.098905087,-1.265803218
11.13192614,0.5401797295,-3.78484726,-1.13120687
11.13748114,0.4612165689,-3.653241873,-0.7651050687
11.14303614,1.082752228,-3.729214191,0.07956135273
11.14859114,0.9900303483,-3.983451605,0.784845829
11.15414614,1.082752228,-4.43808794,1.433300734
11.15970114,0.352343142,-4.867001057,1.415354609
11.16525614,-0.3260220885,-5.120042324,1.015753269
11.17081114,-0.9182456732,-5.338387489,0.3960121572
11.17636614,-1.783251047,-5.51605463,-0.2488535494
11.18192114,-1.954936147,-5.579464436,-0.7543373108
11.18747614,-2.033899307,-5.474778175,-1.430309772
11.19303114,-1.701895118,-5.233701229,-2.0769701
11.19858614,-1.66600275,-5.008776188,-2.74935317
11.20414114,-1.715653777,-4.877170563,-3.387040377
11.20969614,-1.513460279,-4.785047054,-3.977469444
11.21525114,-0.9661021233,-4.701896667,-4.409972191
11.22080614,-0.4660021961,-4.652245522,-4.816154003
11.22636114,-0.1220339537,-4.618745804,-5.155934811
11.23191614,0.002392822644,-4.610371113,-5.486144066
11.23747114,0.09990034252,-4.667798996,-5.796014786
11.24302614,0.3457628787,-4.810171604,-5.794818401
11.24858114,0.6197410822,-4.997410297,-5.633901119
11.25413614,0.9056833982,-5.184648514,-5.383851051
11.25969114,1.05523479,-5.394618511,-5.145166874
11.26524614,1.030708313,-5.658427238,-4.87417984
11.27080114,0.769890666,-6.015556335,-4.643870354
11.27635614,0.6023930907,-6.51445961,-4.454837322
11.28191114,0.7668996453,-7.240083218,-4.006781578
11.28746614,1.172483087,-8.18345356,-3.348157167
11.29302114,1.610369682,-9.331410408,-2.307279348
11.29857614,2.05124712,-11.12542915,-1.362712502
11.30413114,1.435693622,-13.52542973,-1.061815023
11.30968614,0.5826523304,-16.54337692,-1.462014675
11.31524114,-1.110867858,-19.96272087,-1.787438512
11.32079614,-3.199203968,-23.16491508,-1.743171334
11.32635114,-4.380660057,-25.95075989,-1.584646821
11.33190614,-5.085346222,-27.77887535,-1.918445587
11.33746114,-5.992824078,-29.14816856,-2.60279274
11.34301614,-6.022734642,-29.65903664,-2.528615236
11.34857114,-5.158327579,-29.02194786,-1.960319996
11.35412614,-4.316053867,-27.15853691,-1.412363529
11.35968114,-4.185645103,-23.55793762,-0.5982056856
11.36523614,-4.79820776,-19.85504341,0.7088736892
11.37079114,-5.460421085,-16.95075607,3.251247883
11.37634614,-6.345167637,-14.45384502,7.57806921
11.38190114,-6.820142746,-12.35773277,9.134600639
11.38745614,-6.696314335,-11.01117134,7.27118969
11.39301114,-6.320641041,-10.20419216,5.297709465
11.39856614,-5.733202934,-9.523433685,3.55693078
11.40412114,-5.113461971,-8.882756233,2.184048891
11.40967614,-4.4488554,-8.440681458,1.304686546
11.41523114,-4.217350006,-8.180462837,0.8434699774
11.42078614,-4.180859566,-8.245666504,0.3092723191
11.42634114,-4.283750534,-8.575876236,0.1088734269
11.43189614,-4.168895245,-9.020342827,0.07178468257
11.43745114,-3.899702787,-9.458230019,0.1052841991
11.44300614,-3.510869026,-9.868000984,0.132801652
11.44856114,-3.412165165,-10.20957565,0.04127619043
11.45411614,-3.482155085,-10.45842934,-0.07357929647
11.45967114,-3.616751432,-10.5601244,-0.1645065546
11.46522614,-3.668197155,-10.53200912,-0.2530409992
11.47078114,-3.775275946,-10.39801121,-0.3978067636
11.47633614,-3.911068678,-10.02353382,-0.5144568682
11.48189114,-3.974478483,-9.564710617,-0.6035895348
11.48744614,-4.018147469,-9.176474571,-0.6382854581
11.49300114,-3.90568471,-8.771489143,-0.6520441771
11.49855614,-3.764508247,-8.405985832,-0.5964110494
11.50411114,-3.550350666,-8.090133667,-0.3828516304
11.50966614,-3.132204771,-7.791030407,-0.2667997181
11.51522114,-2.885145903,-7.46261549,-0.2907279432
11.52077614,-2.854637384,-7.048058987,-0.3858426511
11.52633114,-2.825325251,-6.668796539,-0.470787853
11.53188614,-2.723630428,-6.381059647,-0.561715126
11.53744114,-2.793022156,-6.153741837,-0.7543373108
11.54299614,-2.86480689,-5.88754034,-0.985244751
11.54855114,-2.81395936,-5.741578102,-1.354935765
11.55410614,-2.690729141,-5.693721294,-2.112862349
11.55966114,-2.671586514,-5.695516109,-3.288336515
11.56521614,-2.463410854,-5.693123341,-4.236492634
11.57077114,-1.94715941,-5.703292847,-5.108676434
11.57632614,-1.353141189,-5.661418438,-5.955137253
11.58188114,-0.7220342159,-5.535196781,-6.838088989
11.58743614,-0.03529413417,-5.489135265,-7.662416458
11.59299114,0.3786641955,-5.411966801,-8.090731621
11.59854614,0.432502687,-5.242674351,-7.999804497
11.60410114,0.1250249892,-5.099104881,-7.658228874
11.60965614,-0.327816695,-4.914259434,-7.17009306
11.61521114,-0.6987041831,-4.700101852,-6.620342255
11.62076614,-0.8883354068,-4.494917393,-6.104090691
11.62632114,-0.8566305041,-4.327419758,-5.643472195
11.63187614,-0.7106683254,-4.212564468,-5.24506712
11.63743114,-0.6077769399,-4.235296249,-4.997410297
11.64298614,-0.6000002623,-4.35852623,-4.941178799
11.64854114,-0.6675975323,-4.542773724,-4.8849473
11.65409614,-0.6993024349,-4.850251675,-4.596014023
11.65965114,-0.7028916478,-5.168497086,-4.254438877
11.66520614,-0.7040880919,-5.451447964,-3.944568157
11.67076114,-0.6801598072,-5.786443233,-3.643072367
11.67631614,-0.7022934556,-6.163911343,-3.369094372
11.68187114,-0.7405785918,-6.527620316,-3.113062143
11.68742614,-0.7645068169,-6.827919483,-2.890529871
11.69298114,-0.793818891,-7.088139057,-2.74396944
11.69853614,-0.7615157962,-7.378268719,-2.548356056
11.70409114,-0.7351947427,-7.719245911,-2.35812664
11.70964614,-0.7369893789,-8.141578674,-2.145763636
11.71520114,-0.7363911867,-8.722436905,-1.907677889
11.72075614,-0.8356932998,-9.428917885,-1.653440475
11.72631114,-1.080359459,-10.28973579,-1.520638824
11.73186614,-1.473978758,-11.33061314,-1.460818172
11.73742114,-2.094317913,-12.5994072,-1.402194023
11.74297614,-2.788236618,-14.11765385,-1.076171994
11.74853114,-4.473381996,-16.16710663,3.046063185
11.75408614,-7.909475327,-18.71187401,12.18724346
11.75964114,-9.422935486,-19.88435555,13.86580944
11.76519614,-9.004789352,-19.88196373,9.968499184
11.77075114,-8.225926399,-19.67857361,5.667998791
11.77630614,-7.481160164,-19.70609093,2.210369825
11.78186114,-6.630511761,-19.77368736,-0.05623133108
11.78741614,-6.090929985,-19.84966087,-0.9439685345
11.79297114,-5.968297958,-19.81017876,-0.3332005441
11.79852614,-6.844070911,-19.11626053,1.89391911
11.80408114,-8.156534195,-17.85045624,4.601995945
11.80963614,-8.428119659,-16.96810341,6.105885029
11.81519114,-7.722835064,-16.71147346,6.107081413
11.82074614,-6.728019238,-17.01296806,5.126622677
11.82630114,-5.799603939,-17.63390732,4.017549038
11.83185614,-5.142774105,-18.21596146,3.056830883
11.83741114,-4.276572227,-18.58445549,2.464009047
11.84296614,-3.28414917,-18.66940117,2.231905222
11.84852114,-2.291127682,-18.50668907,2.244467735
11.85407614,-1.382453322,-18.12323952,2.612962246
11.85963114,-0.6221339107,-17.48794365,3.035295486
11.86518614,-0.2973082066,-16.81077576,3.276372433
11.87074114,-0.2129612118,-16.24128342,3.23330164
11.87629614,-0.001196411322,-15.74178219,3.162115097
11.88185114,0.190229401,-15.3044939,2.982653379
11.88740614,0.2255235314,-14.81037617,2.50707984
11.89296114,0.3086741269,-14.46102333,1.587637782
11.89851614,0.4983053207,-14.15773296,0.5491527915
11.90407114,0.7411768436,-13.8550415,-0.5886343718
11.90962614,0.9206385016,-13.51825142,-1.628913999
11.91518114,0.94277215,-13.07857037,-2.347358942
11.92073614,0.7866404653,-12.58983612,-2.788236618
11.92629114,0.5497509837,-12.12203979,-2.881556749
11.93184614,0.123828575,-11.60160065,-2.841476917
11.93740114,-0.3463610709,-11.03509998,-2.79720974
11.94295614,-0.7196413875,-10.32802105,-2.700898647
11.94851114,-0.9332008362,-9.667003632,-2.657229662
11.95406614,-1.017547846,-9.101100922,-2.733799934
11.95962114,-1.219143152,-8.721838951,-3.03948307
11.96517614,-1.620539188,-8.612366676,-3.704687595
11.97073114,-2.075773716,-8.903693199,-4.768297195
11.97628614,-2.128415823,-9.394820213,-7.336992264
11.98184114,-3.187239647,-9.771091461,-10.3094759
11.98739614,-4.193421841,-9.911071777,-10.83829021
11.99295114,-5.157729149,-10.09172916,-11.02971554
11.99850614,-5.752943993,-10.30827999,-10.63190937
12.00406114,-6.214160442,-10.46441174,-10.07258701
12.00961614,-6.87517786,-10.38903809,-9.299106598
12.01517114,-6.917650223,-10.16112137,-7.749155998
12.02072614,-6.832107067,-9.960722923,-4.854438782
12.02628114,-7.867600918,-9.731609344,2.892324448
12.03183614,-9.226723671,-9.366703987,13.56909943
12.03739114,-8.166703224,-9.101698875,11.85464191
12.04294614,-6.098108292,-9.023932457,10.14796066
12.04850114,-3.873979807,-8.880961418,10.44167995
12.05405614,-1.669592023,-8.785248756,10.64267731
12.05961114,0.3212364316,-8.676374435,10.27298546
12.06516614,1.962114573,-8.57228756,8.061419487
12.07072114,3.321835995,-8.318648338,5.331807137
12.07627614,4.645665169,-7.945367813,2.787638426
12.08183114,5.904289722,-7.448856831,0.3858426511
12.08738614,6.70887661,-6.960123062,-1.955534339
12.09294114,6.951747894,-6.5790658,-3.798605919
12.09849614,6.779464722,-6.169893265,-4.646263599
12.10405114,6.189633846,-5.784648895,-4.983053207
12.10960614,5.38564539,-5.365306377,-4.92442894
12.11516114,4.393820763,-5.002195835,-4.212564468
12.12071614,3.206382275,-4.742574692,-3.196810961
12.12627114,1.928016901,-4.371088982,-2.236690998
12.13182614,0.7740781307,-4.094717979,-1.460818172
12.13738114,-0.04546362907,-3.80159688,-0.8033902049
12.14293614,-0.3840480447,-3.491128206,-0.3200400174
12.14849114,-0.7914260626,-3.364906788,-0.1381855011
12.15404614,-0.7310073376,-3.163311481,0.004187439568
12.15960114,-0.8775677085,-2.934797049,-0.1232303679
12.16515614,-0.7740781307,-2.863610506,-0.366700083
12.17071114,-0.7226324677,-2.993421078,-0.59940207
12.17626614,-0.7597211599,-3.221337557,-0.7794619799
12.18182114,-0.4259224236,-3.628715515,-0.4953143001
12.18737614,-0.4893322289,-4.149752617,-0.09152546525
12.19293114,-0.7310073376,-4.65463829,0.3792623878
12.19848614,-1.117448211,-5.116453171,0.7286145091
12.20404114,-1.527219057,-5.429912567,0.8321040869
12.20959614,-1.379462242,-5.802595139,1.138983607
12.21515114,-1.422533035,-6.100501537,1.192822099
12.22070614,-1.858026743,-6.344569206,1.149153113
12.22626114,-1.817348838,-6.543173313,1.344766378
12.23181614,-1.931007862,-6.675975323,1.383649707
12.23737114,-2.066202402,-6.631109715,1.268195987
12.24292614,-1.798804402,-6.544968128,1.160519004
12.24848114,-1.310070395,-6.345167637,1.014556766
12.25403614,-0.9738788009,-6.151348591,0.5168496966
12.25959114,-0.7908278704,-6.003592014,-0.2793620527
12.26514614,-0.7734799385,-5.863611698,-1.099501967
12.27070114,-0.7549355626,-5.826523304,-1.86580348
12.27625614,-0.8368897438,-5.909673691,-2.71286273
12.28181114,-0.9218349457,-6.105885029,-3.512065411
12.28736614,-0.9116654396,-6.393621922,-4.273581028
12.29292114,-0.8087740541,-6.806384087,-4.953142643
12.29847614,-0.6999006271,-7.354938507,-5.603990555
12.30403114,-0.5898307562,-7.9782691,-6.144768715
12.30958614,-0.4875376225,-8.685347557,-6.480959892
12.31514114,-0.4809573591,-9.329615593,-6.687341213
12.32069614,-0.6699903607,-9.951150894,-6.659225464
12.32625114,-1.231705427,-10.40518951,-6.419344902
12.33180614,-1.925624013,-10.86879826,-6.169294834
12.33736114,-2.568695068,-11.54357433,-5.432305813
12.34291614,-2.32701993,-12.56052399,-3.726222992
12.34847114,-1.902892232,-13.96032524,-1.877767563
12.35402614,-2.627917528,-15.5485611,-0.9774680734
12.35958114,-3.506083488,-17.57468414,-1.853241086
12.36513614,-4.737788677,-19.75753593,-2.614757061
12.37069114,-6.224329948,-21.83869362,-2.374876499
12.37624614,-7.831110477,-24.01496696,-1.841277003
12.38180114,-10.22453117,-26.06262398,-0.8434699774
12.38735614,-11.77747345,-27.31586456,0.4073780477
12.39291114,-12.74895859,-27.17408943,2.800798893
12.39846614,-12.88415337,-24.97747993,5.669195175
12.40402114,-11.00698376,-21.48934174,6.620940208
12.40957614,-8.692526817,-18.01077652,5.662614822
12.41513114,-7.373483181,-15.09631824,4.43808794
12.42068614,-6.909275532,-13.06899929,3.871587038
12.42624114,-6.970292568,-11.66501045,3.827918053
12.43179614,-6.74536705,-10.67198944,3.914657831
12.43735114,-6.074180126,-9.981060982,3.794418573
12.44290614,-5.166702271,-9.406784058,3.516851187
12.44846114,-4.174279213,-9.007781029,2.982055187
12.45401614,-3.34576416,-8.668598175,2.461018085
12.45957114,-2.819941521,-8.404789925,1.932802439
12.46512614,-2.519642353,-8.203792572,1.40697968
12.47068114,-2.39162612,-8.012965202,0.8871390224
12.47623614,-2.40598321,-7.931608677,0.394217521
12.48179114,-2.64227438,-7.847261906,-0.07238288224
12.48734614,-2.810968399,-7.813762188,-0.4342973232
12.49290114,-3.047857761,-7.856832981,-0.6520441771
12.49845614,-3.404388428,-7.997411251,-0.8213363886
12.50401114,-3.720839262,-8.349754333,-0.9367900491
12.50956614,-3.949353695,-8.817551613,-1.073779106
12.51512114,-4.037290096,-9.321240425,-1.143171072
12.52067614,-3.930809498,-9.726225853,-1.11445713
12.52623114,-3.823132277,-10.07378292,-1.085145116
12.53178614,-3.835096598,-10.33938694,-1.067797065
12.53734114,-3.80159688,-10.49073315,-1.009771109
12.54289614,-3.669991732,-10.47517967,-0.970289588
12.54845114,-3.505485058,-10.33998489,-0.9224331379
12.55400614,-3.302095175,-10.26102161,-0.8243274093
12.55956114,-3.126821041,-10.03729248,-0.7818548083
12.56511614,-2.824128866,-9.523433685,-0.7483552694
12.57067114,-2.48793745,-8.949754715,-0.708275497
12.57622614,-2.215155602,-8.467600822,-0.694516778
12.58178114,-2.151745796,-7.975875854,-0.7124629617
12.58733614,-2.280359983,-7.444071293,-0.8147560954
12.59289114,-2.480758905,-6.935596466,-0.9511470199
12.59844614,-2.70149684,-6.463014126,-1.115055323
12.60400114,-2.916850805,-6.098706722,-1.307677627
12.60955614,-3.06460762,-5.773283005,-1.528415442
12.61511114,-3.075375319,-5.508875847,-1.735394597
12.62066614,-3.087339401,-5.322235584,-1.983051777
12.62622114,-3.1405797,-5.225326538,-2.271386862
12.63177614,-3.21894455,-5.178666592,-2.611167669
12.63733114,-3.136392355,-5.184648514,-2.956332445
12.64288614,-2.953939438,-5.244469166,-3.229712248
12.64844114,-2.843271494,-5.297709465,-3.405584812
12.65399614,-2.92402935,-5.312664509,-3.614956856
12.65955114,-3.056830883,-5.298905849,-3.803989887
12.66510614,-3.163311481,-5.24566555,-3.842274904
12.67066114,-3.284747362,-5.09372139,-3.791427374
12.67621614,-3.427120209,-4.904688358,-3.695116282
12.68177114,-3.477967739,-4.721637249,-3.611367464
12.68732614,-3.44985199,-4.612165451,-3.498904943
12.69288114,-3.366701365,-4.569094658,-3.375674486
12.69843614,-3.275176048,-4.583451748,-3.242872953
12.70399114,-3.166900873,-4.6935215,-3.122633457
12.70954614,-2.969492912,-4.839483738,-2.978466034
12.71510114,-2.816352367,-5.035695076,-2.948555708
12.72065614,-2.681157827,-5.240880013,-2.94317174
12.72621114,-2.467598438,-5.478965759,-2.948555708
12.73176614,-2.158325911,-5.724828243,-2.996412039
12.73732114,-1.948953986,-5.957530022,-3.014358282
12.74287614,-1.805982947,-6.184250355,-2.967100143
12.74843114,-1.528415442,-6.454041004,-2.992822886
12.75398614,-1.063609719,-6.603592396,-2.91804719
12.75954114,-0.59940207,-6.68016243,-2.799004316
12.76509614,-0.1794617027,-6.845267296,-2.738585472
12.77065114,0.3391826153,-7.137191772,-2.694916487
12.77620614,0.6454638839,-7.422535896,-2.379063845
12.78176114,0.7435696125,-7.741977692,-1.728216171
12.78731614,1.311864972,-8.276175499,0.4839483798
12.79287114,2.837887764,-9.67956543,9.859625816
12.79842614,2.744567633,-11.35932732,16.95972824
12.80398114,1.088734269,-11.9288187,15.20220089
12.80953614,0.009571290575,-12.01017475,10.63848972
12.81509114,-0.3936193287,-11.79242802,5.175076962
12.82064614,-0.484546572,-11.54895878,-0.1357926875
12.82620114,-0.8482556343,-11.55254745,-4.350151539
12.83175614,-1.495514154,-11.7906332,-6.838088989
12.83731114,-2.210968018,-12.23510075,-7.761718273
12.84286614,-3.16032052,-12.76032448,-7.866404533
12.84842114,-4.193421841,-13.34596825,-7.36151886
12.85397614,-5.030909538,-13.93101311,-6.209374905
12.85953114,-5.760122299,-14.5196476,-4.981856823
12.86508614,-6.550352097,-15.00239944,-3.565903902
12.87064114,-7.710272789,-15.56291866,-1.164108157
12.87619614,-9.260223389,-16.21077538,2.176870346
12.88175114,-10.57149029,-16.67019653,4.715056896
12.88730614,-11.23250771,-17.02732658,5.059623718
12.89286114,-11.15653515,-17.20439529,3.603590965
12.89841614,-10.67617607,-17.28814316,1.625923038
12.90397114,-10.05942631,-17.24985886,-0.02751746029
12.90952614,-9.448060036,-17.06561089,-1.129412293
12.91508114,-8.779864311,-16.75155258,-1.627717614
12.92063614,-7.727022648,-16.20957947,-1.724028707
12.92619114,-6.9649086,-15.80220032,-1.539781332
12.93174614,-6.378666878,-15.71785355,-1.313061476
12.93730114,-5.726622581,-15.76810265,-1.032503009
12.94285614,-5.268397331,-15.76989746,-0.7800601721
12.94841114,-4.902295589,-15.70409489,-0.6604190469
12.95396614,-4.35912466,-15.70349693,-0.456430912
12.95952114,-3.954139471,-15.74537086,-0.3248256743
12.96507614,-3.518047571,-15.81416512,-0.102293171
12.97063114,-3.03350091,-15.84048557,0.2398804724
12.97618614,-2.528615236,-15.77288914,0.6472585201
12.98174114,-1.975873351,-15.53121376,1.031904817
12.98729614,-1.532004714,-15.10828209,1.269392371
12.99285114,-1.213161111,-14.58066463,1.496710539
12.99840614,-1.017547846,-14.05843163,1.653440475
13.00396114,-1.009172916,-13.60439301,1.828714728
13.00951614,-1.11445713,-13.30947781,2.144567251
13.01507114,-1.269990563,-13.13181114,2.560918331
13.02062614,-1.347757339,-13.06182098,3.007778168
13.02618114,-1.273579836,-13.05643654,3.445664644
13.03173614,-1.071984529,-13.07258797,3.755535126
13.03729114,-0.8895317912,-13.15693569,3.64127779
13.04284614,-0.7794619799,-13.29332638,3.01376009
13.04840114,-0.6634100676,-13.44168091,2.022533417
13.05395614,-0.4498506486,-13.55653667,0.9619147182
13.05951114,-0.1357926875,-13.63430309,0.1130608693
13.06506614,0.3397808075,-13.56670666,-0.6119644046
13.07062114,0.6975077987,-13.47697544,-1.064207911
13.07617614,1.045065284,-13.43330669,-1.487139225
13.08173114,1.399203062,-13.36690521,-1.949552298
13.08728614,1.70249331,-13.20180035,-2.392822742
13.09284114,1.858026743,-12.90568924,-2.644068956
13.09839614,1.835893154,-12.4803648,-2.715255499
13.10395114,1.916052699,-11.85165024,-2.939582586
13.10950614,1.963909149,-11.1433754,-3.323032379
13.11506114,1.913061738,-10.57268715,-3.882952929
13.12061614,1.689931035,-10.23290634,-4.384847641
13.12617114,1.052842021,-9.818947792,-5.179862976
13.13172614,0.313459754,-9.310472488,-6.408577442
13.13728114,-0.1992024779,-8.933603287,-7.34716177
13.14283614,-0.7214360237,-8.538188934,-7.771289825
13.14839114,-1.485942841,-8.045268059,-7.945965767
13.15394614,-2.365903378,-7.632505894,-8.276175499
13.15950114,-3.396013498,-7.229913712,-8.143373489
13.16505614,-5.194219589,-6.78484869,-6.043671608
13.17061114,-7.861618996,-6.464808464,-1.898106575
13.17616614,-9.346364975,-6.180062771,1.520638824
13.18172114,-9.322437286,-6.054439545,3.54018116
13.18727614,-8.124231339,-6.110072613,4.66899538
13.19283114,-6.881159782,-6.256034851,5.271986485
13.19838614,-5.895915031,-6.409773827,6.073582172
13.20394114,-4.990231514,-6.547959328,6.808178425
13.20949614,-4.269991875,-6.71964407,6.93978405
13.21505114,-3.471985579,-7.018148899,6.175277233
13.22060614,-2.075175524,-7.295117855,5.097310543
13.22616114,-1.062413216,-7.456633568,3.994817495
13.23171614,-0.27577281,-7.435696602,2.965305567
13.23727114,0.3062812984,-7.192824841,2.117049932
13.24282614,0.4163511395,-6.890730858,1.189831018
13.24838114,0.3583251834,-6.544369698,0.2991028428
13.25393614,0.2512463629,-6.338587284,-0.2721835673
13.25949114,0.1459621787,-6.199205399,-0.7274180651
13.26504614,0.09032905847,-6.140581131,-0.8392825127
13.27060114,-0.4229314029,-6.115456581,-0.8291130662
13.27615614,-0.4319044948,-5.996413708,-0.4528416991
13.28171114,-0.4073780477,-5.853442192,-0.1842473447
13.28726614,-0.6329016089,-5.587240696,-0.02811566554
13.29282114,-0.6358926296,-5.11585474,0.2027917206
13.29837614,-0.3218346536,-4.655834675,0.3714857101
13.30393114,-0.06879365444,-4.288536549,0.3541377485
13.30948614,0.1716850251,-3.898506403,0.09810572863
13.31504114,0.3355933726,-3.579662561,-0.1980060786
13.32059614,0.2261217386,-3.361915827,-0.499501735
13.32615114,-0.132801652,-3.233899832,-0.6819544435
13.33170614,-0.6502495408,-3.227917671,-0.6813562512
13.33726114,-1.146162033,-3.380460262,-0.6693921089
13.34281614,-1.330409408,-3.526422262,-0.5246263742
13.34837114,-1.798804402,-3.673580885,-0.4241278172
13.35392614,-2.359323025,-3.85244441,-0.1573280841
13.35948114,-2.819941521,-4.107878208,0.2380858511
13.36503614,-2.910270452,-4.409972191,0.7393822074
13.37059114,-3.000001431,-4.664209366,1.0863415
13.37614614,-2.845066071,-4.944169998,1.174277663
13.38170114,-2.952144861,-5.188836098,0.8967102766
13.38725614,-2.751147747,-5.382654667,0.6000002623
13.39281114,-2.511267424,-5.604588985,0.337986201
13.39836614,-2.190629244,-5.781657696,0.1088734269
13.40392114,-2.223530531,-5.911468506,-0.3852444589
13.40947614,-2.042274237,-6.078966141,-0.7004988194
13.41503114,-1.749153376,-6.192026615,-0.9092726111
13.42058614,-1.19581306,-6.298507214,-1.033101201
13.42614114,-0.7417750359,-6.417550564,-1.212562919
13.43169614,-0.4241278172,-6.554539204,-1.322034478
13.43725114,-0.1651047617,-6.713662148,-1.371685624
13.44280614,-0.06460621208,-6.963113785,-1.365105271
13.44836114,-0.1064806059,-7.278368473,-1.356132269
13.45391614,-0.2662015259,-7.570292473,-1.436890006
13.45947114,-0.5312066078,-7.830512047,-1.643869162
13.46502614,-0.8003991842,-8.08295536,-1.823330879
13.47058114,-1.091725349,-8.382058144,-2.02612257
13.47613614,-1.424327731,-8.702695847,-2.224726915
13.48169114,-1.838286042,-9.051449776,-2.610569477
13.48724614,-2.404188633,-9.29432106,-3.133999348
13.49280114,-3.151945591,-9.576076508,-3.765704632
13.49835614,-4.137190342,-9.789037704,-4.319045067
13.50391114,-4.866403103,-10.19162941,-4.600201607
13.50946614,-4.559523582,-10.73838997,-4.2574296
13.51502114,-4.42373085,-11.93181038,-3.254238844
13.52057614,-5.148756027,-13.86102295,-1.466800332
13.52613114,-6.069394588,-16.48774529,0.304486692
13.53168614,-7.016952515,-19.2382946,-0.8518448472
13.53724114,-7.727620602,-21.31586266,-2.624926329
13.54279614,-8.103892326,-22.74318123,-3.157329559
13.54835114,-8.985647202,-24.38047028,-2.394617319
13.55390614,-9.8201437,-25.69652176,-1.56191504
13.55946114,-10.37408257,-26.16790771,-1.027717352
13.56501614,-11.69372463,-25.59961319,-0.3864408433
13.57057114,-12.79262829,-22.70668983,0.6867401004
13.57612614,-12.20040417,-18.8117733,1.697707653
13.58168114,-10.42732334,-15.29671669,2.313261271
13.58723614,-8.532207489,-12.5683012,2.794816732
13.59279114,-7.090531826,-10.66600704,3.157927752
13.59834614,-6.591628075,-9.410971642,3.613760471
13.60390114,-6.504888535,-8.669196129,4.116253376
13.60945614,-6.664011002,-8.226524353,4.596014023
13.61501114,-6.670591354,-7.912466049,4.879563808
13.62056614,-6.235097408,-7.721040249,4.764708042
13.62612114,-5.630311489,-7.563712597,4.27178669
13.63167614,-5.012365341,-7.48833847,3.782454491
13.63723114,-4.605585575,-7.405188084,3.367299557
13.64278614,-4.136591911,-7.380661488,2.76909399
13.64834114,-3.800400496,-7.465008259,2.086541414
13.65389614,-3.577269793,-7.746763229,1.416550994
13.65945114,-3.437289715,-8.206185341,0.8147560954
13.66500614,-3.419941664,-8.778069496,0.3906283081
13.67056114,-3.355933666,-9.360722542,0.03529413417
13.67611614,-3.380460262,-9.978668213,-0.2763710022
13.68167114,-3.384049416,-10.55533886,-0.5431707501
13.68722614,-3.400799274,-11.01057339,-0.7429714203
13.69278114,-3.424129248,-11.34975624,-0.8656035662
13.69833614,-3.366701365,-11.55015469,-0.9140582681
13.70389114,-3.35413909,-11.690135,-0.8967102766
13.70944614,-3.268595695,-11.66860008,-0.837487936
13.71500114,-3.220739365,-11.46760273,-0.8159525394
13.72055614,-3.070589542,-11.12303638,-0.8949156404
13.72611114,-2.887538671,-10.70130062,-0.9236295223
13.73166614,-2.624328136,-10.23948669,-0.9230313301
13.73722114,-2.267199516,-9.736394882,-0.912861824
13.74277614,-1.956730723,-9.226723671,-0.9314061999
13.74833114,-1.549950838,-8.842676163,-0.9613165259
13.75388614,-1.278963685,-8.577671051,-0.9631111026
13.75944114,-1.272383451,-8.364709854,-0.9074779749
13.76499614,-1.347159147,-8.200801849,-0.8291130662
13.77055114,-1.293918848,-7.969893932,-0.7974081635
13.77610614,-1.250848055,-7.639086246,-0.8201399446
13.78166114,-1.095314622,-7.270591736,-0.8997012973
13.78721614,-0.9876375198,-6.943373203,-1.006780148
13.79277114,-0.9517452121,-6.632306099,-1.141974568
13.79832614,-0.9056833982,-6.351149559,-1.272981644
13.80388114,-0.9194421172,-6.0927248,-1.472184181
13.80943614,-1.181456208,-5.876173973,-1.731207132
13.81499114,-1.576271892,-5.696712494,-2.027318954
13.82054614,-1.984248161,-5.571089268,-2.335993052
13.82610114,-2.364108801,-5.514857769,-2.634497643
13.83165614,-2.733201742,-5.559125423,-2.937189817
13.83721114,-2.92941308,-5.644668579,-3.265604734
13.84276614,-3.011367321,-5.682953835,-3.537788391
13.84832114,-3.146561861,-5.647061348,-3.838685751
13.85387614,-3.229712248,-5.575276852,-4.137788773
13.85943114,-3.249453068,-5.480760098,-4.42672205
13.86498614,-3.406183004,-5.385047436,-4.779065132
13.87054114,-3.605385542,-5.239085197,-5.10149765
13.87609614,-3.824328899,-5.087738991,-5.164907455
13.88165114,-3.923032761,-4.944767952,-5.106881618
13.88720614,-3.835096598,-4.807778835,-5.061418056
13.89276114,-3.693919897,-4.661816597,-5.073980331
13.89831614,-3.622135162,-4.546362877,-5.021338463
13.90387114,-3.628715515,-4.457230568,-4.861617565
13.90942614,-3.55154705,-4.454239368,-4.582255363
13.91498114,-3.337987661,-4.510470867,-4.171886444
13.92053614,-3.234498024,-4.556532383,-3.86620307
13.92609114,-3.071786165,-4.703691006,-3.724428415
13.93164614,-2.789433002,-4.91067028,-3.451646566
13.93720114,-2.450250387,-5.183452129,-3.028116941
13.94275614,-2.158325911,-5.584847927,-2.625524759
13.94831114,-1.916650891,-6.126822472,-2.328814745
13.95386614,-1.630708575,-6.785446644,-2.099701881
13.95942114,-1.400399446,-7.587640762,-1.931606054
13.96497614,-1.296909928,-8.371290207,-1.792822361
13.97053114,-1.208375454,-9.177073479,-1.686939955
13.97608614,-1.080359459,-9.969097137,-1.425524116
13.98164114,-1.072582722,-10.6797657,-1.135394335
13.98719614,-1.173081279,-11.3575325,-0.3487538993
13.99275114,-2.020140409,-12.90269756,8.148757935
13.99830614,-3.9170506,-14.83849144,19.75574112
14.00386114,-5.152345181,-14.93001652,18.69631958
14.00941614,-5.583651543,-14.30967808,13.33280754
14.01497114,-4.992026329,-13.84666634,7.545766354
14.02052614,-4.176073551,-13.73719501,2.360519648
14.02608114,-3.361317635,-13.97528076,-1.435693622
14.03163614,-2.631506681,-14.38026619,-3.690928936
14.03719114,-2.157727718,-14.88874054,-4.688735962
14.04274614,-2.199602127,-15.52403545,-4.872983456
14.04830114,-2.732005358,-16.09771347,-4.776672363
14.05385614,-3.55154705,-16.53141403,-4.48833704
14.05941114,-4.317250252,-16.7790699,-4.06660223
14.06496614,-4.917250633,-16.78923988,-3.579064369
14.07052114,-5.350949764,-16.50030708,-3.048455954
14.07607614,-5.593821049,-16.01755524,-2.469393015
14.08163114,-5.81096983,-15.39542103,-1.864607096
14.08718614,-6.135197163,-14.83729458,-1.211366415
14.09274114,-6.577869415,-14.62313747,-0.3972085714
14.09829614,-7.018746853,-14.8582325,0.5521438122
14.10385114,-7.447660446,-15.34457302,1.596610904
14.10940614,-7.743772507,-15.88415527,2.357528448
14.11496114,-7.846663475,-16.37049675,2.595016241
14.12051614,-7.687541008,-16.74497223,2.382055044
14.12607114,-7.343572617,-16.99263,1.94715941
14.13162614,-6.998407841,-16.9914341,1.533799291
14.13718114,-6.540780544,-16.67438507,1.29451704
14.14273614,-6.263213158,-16.00738525,1.245464206
14.14829114,-6.209972858,-15.26441383,1.336391449
14.15384614,-6.151348591,-14.68116379,1.511665702
14.15940114,-6.000002861,-14.27139282,1.700100541
14.16495614,-5.69252491,-13.94357586,1.883749604
14.17051114,-5.316852093,-13.65284824,2.021337032
14.17606614,-4.941776752,-13.40399456,2.09671092
14.18162114,-4.550550461,-13.16590881,2.200798512
14.18717614,-4.046263218,-12.93081379,2.274377823
14.19273114,-3.531806231,-12.77886963,2.173281193
14.19828614,-3.131606579,-12.73280716,1.77009058
14.20384114,-2.778665304,-12.74656582,1.130608678
14.20939614,-2.502294302,-12.68854046,0.337387979
14.21495114,-2.252842426,-12.57368469,-0.5497509837
14.22050614,-1.78145647,-12.56770229,-1.470987678
14.22606114,-1.158724308,-12.50369453,-2.226521492
14.23161614,-0.5150550604,-12.4109726,-2.750549555
14.23717114,-0.1088734269,-12.29312611,-2.936591625
14.24272614,0.04067798331,-12.21236897,-2.855235577
14.24828114,-0.2309073806,-12.08554935,-2.812164783
14.25383614,-0.3774677813,-12.10588837,-2.926422119
14.25939114,-0.261415869,-12.1034956,-3.162713289
14.26494614,-0.01794617064,-11.9216404,-3.681357622
14.27050114,0.2350948304,-11.60638618,-5.06500721
14.27605614,0.2656033039,-11.22233772,-7.80897665
14.28161114,-0.380458802,-10.8927269,-8.904889107
14.28716614,-0.7585247755,-10.46441174,-9.236893654
14.29272114,-1.213759303,-10.12642574,-9.447462082
14.29827614,-1.660618901,-9.847063065,-10.19282627
14.30383114,-2.322832584,-9.790233612,-10.59063339
14.30938614,-2.553740025,-9.737591743,-10.56550884
14.31494114,-2.713460922,-9.640084267,-10.23290634
14.32049614,-2.928216696,-9.466006279,-9.268000603
14.32605114,-3.120240688,-9.324830055,-7.679764271
14.33160614,-4.389633179,-9.367302895,-2.91266346
14.33716114,-6.782455921,-9.452845573,6.148955822
14.34271614,-6.98704195,-9.297312737,8.123632431
14.34827114,-6.437291145,-9.186644554,8.522636414
14.35382614,-6.347560406,-9.220144272,9.245268822
14.35938114,-6.661618233,-9.156135559,10.25982571
14.36493614,-7.032505512,-9.054440498,10.74197865
14.37049114,-6.839883327,-9.032307625,9.782457352
14.37604614,-5.639883041,-9.049057007,7.599604607
14.38160114,-3.116053343,-8.863015175,4.981856823
14.38715614,-0.9230313301,-8.538188934,2.367099762
14.39271114,0.3080759048,-8.160721779,0.05623133108
14.39826614,0.8907282352,-7.695915699,-1.511665702
14.40382114,1.305284739,-7.284948349,-2.428714991
14.40937614,1.469791293,-6.857829571,-2.728415966
14.41493114,1.514656782,-6.377470493,-2.419741869
14.42048614,1.622931957,-5.973083496,-1.965703845
14.42604114,1.484746456,-5.587240696,-1.809572101
14.43159614,1.204187989,-5.166104317,-1.654038668
14.43715114,1.086939692,-4.619942188,-1.516451359
14.44270614,1.133001566,-4.121038914,-1.355534077
14.44826114,1.231107235,-3.628715515,-1.101894855
14.45381614,1.430309772,-3.229114056,-0.6879364848
14.45937114,1.676172256,-2.928216696,-0.2195414752
14.46492614,1.866999865,-2.768495798,0.1639083475
14.47048114,1.876571178,-2.670390129,0.4881358147
14.47603614,1.55054903,-2.675773859,0.6490531564
14.48159114,1.254437327,-2.69850564,0.7579265833
14.48714614,1.000798106,-2.799004316,0.9116654396
14.49270114,0.5503492355,-3.105883837,0.8979067206
14.49825614,0.05383851007,-3.531208038,0.6436693072
14.50381114,-0.2727817893,-3.986442566,0.3170489967
14.50936614,-0.5096712112,-4.408775806,-0.05324030295
14.51492114,-0.9242277741,-4.719842434,-0.5204389095
14.52047614,-0.9846464992,-5.026124001,-0.4689932466
14.52603114,-0.8835497499,-5.269593716,-0.1064806059
14.53158614,-0.822532773,-5.422136307,0.3613162339
14.53714114,-0.836291492,-5.505286694,0.890130043
14.54269614,-0.8404789567,-5.535795212,1.433898926
14.54825114,-0.8943174481,-5.48734045,1.722832322
14.55380614,-0.9625129104,-5.38564539,1.663011789
14.55936114,-1.12283206,-5.134399414,1.244267821
14.56491614,-1.839482427,-4.766502857,0.3906283081
14.57047114,-2.023131609,-4.478167534,-0.1148554832
14.57602614,-2.074577332,-4.360321045,-0.3583251834
14.58158114,-2.692523718,-4.393222332,-0.7010970116
14.58713614,-2.96889472,-4.610371113,-1.022333503
14.59269114,-3.079562664,-5.005784988,-1.610369682
14.59824614,-3.763910055,-5.374279499,-2.765504837
14.60380114,-4.345366001,-5.805585861,-3.955335855
14.60935614,-4.301696777,-6.329614162,-4.79521656
14.61491114,-3.869792461,-6.924230576,-5.356931686
14.62046614,-3.539582968,-7.514061451,-5.86181736
14.62602114,-3.393022537,-8.015955925,-6.131010056
14.63157614,-3.132802963,-8.539983749,-6.198606968
14.63713114,-2.941975355,-8.950352669,-6.345765591
14.64268614,-2.801397085,-9.326025963,-6.480959892
14.64824114,-2.594418049,-9.754341125,-6.471388817
14.65379614,-2.798406124,-10.164711,-6.319444656
14.65935114,-3.583850145,-10.50269699,-6.289534092
14.66490614,-3.538386583,-11.02732277,-5.913861275
14.67046114,-3.071187973,-11.72124195,-4.981856823
14.67601614,-2.989233732,-12.84347534,-3.583251953
14.68157114,-3.780061483,-14.59382534,-1.597209096
14.68712614,-5.441876888,-17.20619011,0.6317051649
14.69268114,-7.069594383,-19.83291054,-0.2404786795
14.69823614,-8.128418922,-22.27239227,-2.018345833
14.70379114,-9.587442398,-24.48874474,-1.7670995
14.70934614,-11.82532978,-26.18884468,0.5934200287
14.71490114,-13.64866066,-27.52284431,4.43748951
14.72045614,-15.76391602,-27.43909454,9.023334503
14.72601114,-16.21137428,-25.32384109,8.830712318
14.73156614,-14.44606876,-21.85903358,6.602993965
14.73712114,-11.66919804,-17.85703659,4.880161762
14.74267614,-9.231510162,-14.58245945,3.672982693
14.74823114,-7.697112083,-12.27458191,3.104687452
14.75378614,-6.559923172,-10.79641533,2.824727058
14.75934114,-5.316253662,-9.781859398,2.427518606
14.76489614,-4.262813568,-8.932407379,2.130808592
14.77045114,-3.517449379,-8.191828728,1.917249203
14.77600614,-3.160918713,-7.618747234,1.729412556
14.78156114,-2.90967226,-7.199405193,1.49132669
14.78711614,-2.542972326,-6.75972414,1.278963685
14.79267114,-2.531008244,-6.515058041,0.9433703423
14.79822614,-2.736790895,-6.42472887,0.55154562
14.80378114,-3.112463951,-6.495915413,0.2261217386
14.80933614,-3.536591768,-6.656832695,-0.07716853172
14.81489114,-3.979862213,-6.975078106,-0.2925225794
14.82044614,-4.298706055,-7.600800991,-0.4163511395
14.82600114,-4.520041943,-8.393424034,-0.5509474277
14.83155614,-4.771886349,-9.299705505,-0.6424728632
14.83711114,-4.920241356,-10.29153061,-0.6813562512
14.84266614,-5.078167915,-11.21396351,-0.732203722
14.84822114,-5.319842815,-11.98564816,-0.7704889178
14.85377614,-5.498108387,-12.56949711,-0.8129615188
14.85933114,-5.575874805,-12.93559933,-0.8679963946
14.86488614,-5.633901119,-13.13181114,-0.9643075466
14.87044114,-5.717051506,-13.09173107,-1.109671474
14.87599614,-5.496313572,-12.9134655,-1.217946768
14.88155114,-5.137988567,-12.58564854,-1.273579836
14.88710614,-4.737190723,-12.0167551,-1.325623751
14.89266114,-4.488935471,-11.30668545,-1.437488198
14.89821614,-4.164707661,-10.46800041,-1.529611826
14.90377114,-3.912863255,-9.67956543,-1.528415442
14.90932614,-3.635295868,-8.967103004,-1.47158587
14.91488114,-3.227319479,-8.298309326,-1.35912323
14.92043614,-2.834298372,-7.671987534,-1.269990563
14.92599114,-2.465205431,-7.127022266,-1.192223907
14.93154614,-2.260020971,-6.724429607,-1.163509965
14.93710114,-2.18644166,-6.355935097,-1.128814101
14.94265614,-2.160120726,-6.008975983,-1.109671474
14.94821114,-2.240878344,-5.704489231,-1.135992527
14.95376614,-2.428116798,-5.4622159,-1.176072359
14.95932114,-2.711666346,-5.316253662,-1.287936807
14.96487614,-2.980858803,-5.260022163,-1.437488198
14.97043114,-3.183052301,-5.293521881,-1.670190215
14.97598614,-3.318246841,-5.32163763,-1.948953986
14.98154114,-3.429512978,-5.3210392,-2.238485575
14.98709614,-3.567100286,-5.248656273,-2.583052158
14.99265114,-3.674777269,-5.132604599,-2.916850805
14.99820614,-3.658625841,-4.962714195,-3.270390272
15.00376114,-3.582055569,-4.73001194,-3.71186614
15.00931614,-3.562912941,-4.514657974,-4.219742775
15.01487114,-3.561118364,-4.383651257,-4.504488468
15.02042614,-3.669991732,-4.334598064,-4.617549419
15.02598114,-3.89192605,-4.315455437,-4.737788677
15.03153614,-4.073182583,-4.377070904,-4.850849628
15.03709114,-4.097708702,-4.518247128,-4.983053207
15.04264614,-3.921238184,-4.731208801,-5.128417015
15.04820114,-3.583850145,-5.005784988,-5.171487808
15.05375614,-3.209373474,-5.252843857,-5.106881618
15.05931114,-2.783450842,-5.409573555,-4.928616524
15.06486614,-2.452643156,-5.550152302,-4.725226402
15.07042114,-2.224128723,-5.658427238,-4.500301361
15.07597614,-2.034497499,-5.874977589,-4.213760853
15.08153114,-1.77846539,-6.150152206,-3.889533281
15.08708614,-1.476969719,-6.414559364,-3.631706476
15.09264114,-1.168893814,-6.684948444,-3.428914785
15.09819614,-0.955334425,-6.863213539,-3.147160053
15.10375114,-0.7932206988,-7.084549427,-2.844467878
15.10930614,-0.6765705943,-7.46261549,-2.560918331
15.11486114,-0.442073971,-7.875975609,-2.345564365
15.12041614,-0.1375873089,-8.268398285,-2.114656925
15.12597114,-0.005982056726,-8.583054543,-1.822134495
15.13152614,0.1381855011,-8.886942863,-1.47457695
15.13708114,0.2440679073,-9.195617676,-1.181456208
15.14263614,0.2512463629,-9.46002388,-0.9074779749
15.14819114,0.3924229145,-9.756733894,-0.2955136001
15.15374614,1.130010486,-10.46082211,5.019543648
15.15930114,1.683350682,-11.68235874,17.37548256
15.16485614,0.7615157962,-11.94676495,16.60080528
15.17041114,-0.3332005441,-11.78046417,11.40658569
15.17596614,-0.8273184299,-11.61416245,6.594619274
15.18152114,-0.9080761671,-11.57228851,2.57228446
15.18707614,-0.8333004713,-11.63450146,-0.4809573591
15.19263114,-0.9104689956,-11.91685486,-2.583650351
15.19818614,-1.28315115,-12.37089348,-3.946362734
15.20374114,-1.75334084,-12.89731407,-4.65403986
15.20929614,-2.403590441,-13.44826126,-5.150550842
15.21485114,-3.217748165,-13.94178104,-5.536991596
15.22040614,-3.830909014,-14.24148178,-5.680561066
15.22596114,-4.363312244,-14.38265896,-5.600401402
15.23151614,-4.87417984,-14.33659649,-5.34975338
15.23707114,-5.367699623,-14.13739395,-4.917848587
15.24262614,-5.824130535,-13.80539036,-4.155136585
15.24818114,-6.460621357,-13.42792225,-2.711068153
15.25373614,-7.424928665,-13.08634663,0.1387837082
15.25929114,-8.690732002,-12.86022568,3.19980216
15.26484614,-9.431908607,-12.75195026,4.786243439
15.27040114,-9.559925079,-12.7005043,4.684548378
15.27595614,-9.13220787,-12.67119217,3.497110367
15.28151114,-8.365307808,-12.5623188,1.889731646
15.28706614,-7.5421772,-12.40379429,0.3894318938
15.29262114,-6.859624386,-12.28534985,-0.7818548083
15.29817614,-6.446264267,-12.18365479,-1.523031592
15.30373114,-6.174080849,-12.19382381,-1.831107497
15.30928614,-5.846263885,-12.3050909,-1.755135417
15.31484114,-5.41435957,-12.47198963,-1.363310695
15.32039614,-5.16969347,-12.60299683,-0.8231309652
15.32595114,-5.080560684,-12.7190485,-0.2267199457
15.33150614,-4.892126083,-12.857234,0.3182454109
15.33706114,-4.701896667,-12.98345566,0.732203722
15.34261614,-4.469194412,-13.09771252,1.043868899
15.34817114,-4.298107624,-13.25563908,1.241874933
15.35372614,-4.051048756,-13.51585865,1.417747378
15.35928114,-3.903291941,-13.72223949,1.607378602
15.36483614,-3.79621315,-13.85683632,1.829312921
15.37039114,-3.600001574,-13.80598831,2.133201361
15.37594614,-3.381656647,-13.66959763,2.450848579
15.38150114,-3.31465745,-13.51107311,2.749951363
15.38705614,-3.260220766,-13.36511135,3.028116941
15.39261114,-3.096312523,-13.20479202,3.327219963
15.39816614,-2.807977438,-12.97687531,3.707080364
15.40372114,-2.550150633,-12.8010025,4.079164505
15.40927614,-2.334198475,-12.66341591,4.243072987
15.41483114,-2.184647083,-12.52104282,4.270590305
15.42038614,-2.035693884,-12.32243824,4.086342812
15.42594114,-1.899302959,-12.13998604,3.544966698
15.43149614,-1.62652123,-11.98624706,2.328216314
15.43705114,-1.092323542,-11.91745281,0.5264210105
15.44260614,-0.4983053207,-11.83250809,-1.320838094
15.44816114,0.156729877,-11.66740322,-2.727219582
15.45371614,0.7651050687,-11.33539867,-3.512663603
15.45927114,0.9098708034,-10.85922718,-3.634099483
15.46482614,0.7238288522,-10.41775131,-3.712464333
15.47038114,0.418145746,-10.11386299,-3.637090445
15.47593614,0.3601198196,-9.777072906,-3.3852458
15.48149114,0.2709871531,-9.414560318,-3.054438114
15.48704614,0.2673979402,-8.898907661,-2.7577281
15.49260114,0.5940182209,-8.240880966,-2.69850564
15.49815614,0.9194421172,-7.756932735,-2.568695068
15.50371114,1.105484009,-7.540382385,-2.406581402
15.50926614,1.068395257,-7.164709091,-2.562713146
15.51482114,0.7818548083,-6.850651264,-2.961117983
15.52037614,0.2225325108,-6.780063152,-3.515654564
15.52593114,-0.4624129832,-6.880561352,-4.166502476
15.53148614,-0.8291130662,-7.292725086,-5.030909538
15.53704114,-0.926620543,-8.013563156,-6.736393929
15.54259614,-1.256830096,-8.575278282,-8.660821915
15.54815114,-1.652842283,-8.811569214,-8.176873207
15.55370614,-2.09671092,-8.996415138,-6.543173313
15.55926114,-2.459223509,-9.309874535,-5.014159679
15.56481614,-3.134597778,-9.536594391,-4.057030678
15.57037114,-4.367499352,-9.842277527,-3.077169895
15.57592614,-7.150352478,-10.72463131,4.226921082
15.58148114,-9.623932838,-11.33121204,10.69651508
15.58703614,-7.375277519,-10.55474091,7.635497093
15.59259114,-5.028516769,-10.01934624,5.160720348
15.59814614,-3.19382,-9.776474953,3.275176048
15.60370114,-1.903490424,-9.686145782,2.302493572
15.60925614,-0.9888339639,-9.653842926,2.02073884
15.61481114,-0.2321037948,-9.564710617,2.143370867
15.62036614,0.7393822074,-9.288339615,2.704487801
15.62592114,2.040479422,-8.879166603,3.273979664
15.63147614,2.825325251,-8.197212219,3.052643538
15.63703114,3.09272337,-7.518248558,2.39222455
15.64258614,2.942573547,-6.910471916,1.484746456
15.64814114,2.441875458,-6.336194515,0.5276173949
15.65369614,1.876571178,-5.816353798,-0.327816695
15.65925114,1.480558991,-5.40060091,-0.9493523836
15.66480614,1.115055323,-5.121836662,-1.379462242
15.67036114,0.8093722463,-4.945366383,-1.648654819
15.67591614,0.5497509837,-4.941178799,-1.903490424
15.68147114,0.4959124923,-5.038087845,-2.041077614
15.68702614,0.6197410822,-5.19481802,-1.938784599
15.69258114,0.5581258535,-5.30728054,-1.697109461
15.69813614,0.4971089065,-5.508277893,-1.16769743
15.70369114,0.4295116663,-5.743970871,-0.5180460811
15.70924614,0.1740778536,-5.964708805,0.009571290575
15.71480114,-0.1896311939,-6.174678802,0.3684946895
15.72035614,-0.3415754437,-6.383452415,0.6969096065
15.72591114,-0.3750749528,-6.614359856,0.7980063558
15.73146614,-0.3116651475,-6.790830612,0.7046862841
15.73702114,-0.2679961324,-6.946363926,0.4935196638
15.74257614,-0.228514567,-7.09112978,0.261415869
15.74813114,-0.1770688742,-7.226324558,0.05024927482
15.75368614,-0.1082752272,-7.350750923,-0.09391828626
15.75924114,-0.0143569354,-7.448856831,-0.2494517565
15.76479614,0.1836491376,-7.536793232,-0.2877369225
15.77035114,0.3696911037,-7.612166882,-0.2219343036
15.77590614,0.522831738,-7.68275547,-0.1148554832
15.78146114,0.6400800347,-7.715656757,-0.0005982056609
15.78701614,0.7525427341,-7.710272789,0.1112662554
15.79257114,0.8596215248,-7.677969456,0.2368894368
15.79812614,0.9750752449,-7.635497093,0.37986058
15.80368114,1.065404296,-7.604988575,0.5252245665
15.80923614,1.123430252,-7.582256794,0.6251249313
15.81479114,1.203589797,-7.579864025,0.7716853023
15.82034614,1.194018483,-7.615756035,0.9212366939
15.82590114,1.164108157,-7.716853142,1.088734269
15.83145614,1.027717352,-7.862216949,1.259821177
15.83701114,0.8488538265,-8.062616348,1.386042476
15.84256614,0.5419743061,-8.340781212,1.384846091
15.84812114,0.007776673418,-8.617751122,1.258624673
15.85367614,-0.5353940725,-8.930013657,1.019342422
15.85923114,-1.185643673,-9.270393372,0.6669993401
15.86478614,-1.93040967,-9.592227936,0.1800599098
15.87034114,-2.797807932,-9.832706451,-0.4342973232
15.87589614,-3.550350666,-10.18505001,-1.00737834
15.88145114,-4.444069862,-10.44048309,-1.760519266
15.88700614,-5.212165833,-10.62891865,-2.43708992
15.89256114,-5.989234924,-10.83350468,-3.017947674
15.89811614,-6.997211456,-11.10389328,-3.638885021
15.90367114,-7.84845829,-11.2510519,-4.107878208
15.90922614,-8.787042618,-11.42812061,-4.366302967
15.91478114,-9.582057953,-11.48913765,-4.514657974
15.92033614,-10.15932655,-11.43171024,-4.532604218
15.92589114,-10.77847004,-11.30907822,-4.508078098
15.93144614,-11.67398357,-11.21695423,-4.536193371
15.93700114,-12.33799171,-11.0871439,-4.345366001
15.94255614,-12.91825104,-10.99621677,-4.124029636
15.94811114,-13.43091393,-10.89691448,-3.777070522
15.95366614,-13.76889992,-10.67019463,-3.279363394
15.95922114,-14.08535004,-10.48654556,-2.602194548
15.96477614,-14.4376936,-10.35972595,-1.93040967
15.97033114,-14.62253952,-10.25444126,-1.251446247
15.97588614,-14.52383518,-10.01575756,-0.5210371017
15.98144114,-14.22054482,-9.738189697,0.2027917206
15.98699614,-14.05543995,-9.475577354,0.9876375198
15.99255114,-13.77727413,-9.309276581,1.47158587
15.99810614,-13.11984634,-9.333803177,1.84606266
16.00366114,-12.44327641,-9.533603668,1.944766641
16.00921614,-11.67996597,-9.909276962,1.88255322
16.01477114,-10.89811039,-10.38784122,1.643270969
16.02032614,-10.10010433,-10.90349483,1.248455167
16.02588114,-9.110074043,-11.43709373,0.6783652306
16.03143614,-7.739584923,-11.88215923,-0.06340979785
16.03699114,-6.260222435,-12.21296692,-0.8398807645
16.04254614,-4.916054249,-12.4301157,-1.554736495
16.04810114,-3.571886063,-12.63649654,-1.957328916
16.05365614,-2.496910334,-12.89432335,-2.007578135
16.05921114,-1.165304661,-13.49910927,1.111466169
16.06476614,1.775474429,-14.41735458,13.11805153
16.07032114,4.955535889,-14.50230026,19.24726677
16.07587614,5.816951752,-13.43809223,16.73300934
16.08143114,5.647659779,-12.02453232,11.78764248
16.08698614,5.322235584,-10.73061275,7.422535896
16.09254114,4.977669239,-9.651450157,4.432703972
16.09809614,4.607978344,-8.853444099,2.606980324
16.10365114,4.005585194,-8.292326927,1.579861164
16.10920614,3.588635683,-8.076375008,1.199402332
16.11476114,3.472583771,-8.252246857,0.9780662656
16.12031614,3.209971666,-8.614759445,0.7752745152
16.12587114,3.012563705,-9.191430092,0.5557330847
16.13142614,2.924627542,-9.813564301,0.4271188378
16.13698114,2.81695056,-10.47398281,0.3912265003
16.14253614,2.792423964,-11.12602711,0.3337987661
16.14809114,2.706880569,-11.78883934,0.1974078715
16.15364614,2.790629387,-12.39422321,0.005982056726
16.15920114,3.172284603,-12.99123192,-0.2267199457
16.16475614,3.629313707,-13.63011551,-0.4241278172
16.17031114,3.936193228,-14.15474224,-0.5814558864
16.17586614,4.071387768,-14.60519123,-0.7357929349
16.18142114,3.846462488,-14.73141289,-0.9080761671
16.18697614,3.494119167,-14.6321106,-1.047458172
16.19253114,2.889333248,-14.21755409,-1.279561877
16.19808614,2.481357098,-13.4721899,-1.648056626
16.20364114,2.30189538,-12.80937767,-1.957927108
16.20919614,2.151745796,-12.25125217,-2.251646042
16.21475114,1.904686809,-11.7906332,-2.527418852
16.22030614,1.456630826,-11.26421261,-2.755933523
16.22586114,0.8249256015,-10.5475626,-3.027518749
16.23141614,0.3062812984,-9.70468998,-3.610769272
16.23697114,0.1405783296,-8.938986778,-4.709074974
16.24252614,0.3475574851,-8.363512993,-6.726822853
16.24808114,0.4785645306,-8.091927528,-9.662816048
16.25363614,0.87517488,-7.906484127,-11.90728378
16.25919114,1.883151412,-8.015955925,-11.73799133
16.26474614,2.772683144,-8.231907845,-10.8424778
16.27030114,2.576471806,-8.277371407,-9.807581902
16.27585614,1.93040967,-8.211568832,-8.925827026
16.28141114,0.9684949517,-8.209774017,-8.023134232
16.28696614,-0.06041877344,-8.261817932,-6.796812534
16.29252114,-1.069591761,-8.255836487,-5.76849699
16.29807614,-1.78684032,-8.227720261,-4.932804108
16.30363114,-2.040479422,-8.277970314,-4.213162422
16.30918614,-2.00099802,-8.288737297,-3.573082447
16.31474114,-2.057827473,-8.31027317,-3.216551781
16.32029614,-2.112264156,-8.418548584,-3.327219963
16.32585114,-2.188834429,-8.595617294,-3.612564087
16.33140614,-2.168495417,-8.784649849,-3.836891174
16.33696114,-2.083550215,-8.879166603,-3.908077478
16.34251614,-2.051845312,-8.899505615,-3.862613916
16.34807114,-1.990828395,-8.845068932,-3.823730469
16.35362614,-2.018345833,-8.690732002,-3.68075943
16.35918114,-2.346162558,-8.524430275,-3.524029493
16.36473614,-2.764308453,-8.469395638,-3.388236761
16.37029114,-3.084946632,-8.43589592,-3.163311481
16.37584614,-3.218346357,-8.438288689,-2.989831924
16.38140114,-3.235694408,-8.484949112,-2.800200701
16.38695614,-3.141776085,-8.587242126,-2.624328136
16.39251114,-2.967100143,-8.73559761,-2.486740828
16.39806614,-2.90967226,-8.933603287,-2.405385017
16.40362114,-3.25005126,-9.118449211,-2.324028969
16.40917614,-3.524627686,-9.371489525,-2.312663078
16.41473114,-3.79621315,-9.59641552,-2.335394859
16.42028614,-4.197608948,-9.95414257,-2.371885538
16.42584114,-4.563112736,-10.27418232,-2.321038008
16.43139614,-4.67976284,-10.55294609,-2.187638044
16.43695114,-4.671986103,-10.6540432,-2.084148407
16.44250614,-4.584050179,-10.67737293,-1.950748682
16.44806114,-4.467998028,-10.62652493,-1.734198213
16.45361614,-4.461417675,-10.44287586,-1.515254974
16.45917114,-4.590032101,-10.19222832,-1.329811215
16.46472614,-4.826323509,-10.01037312,-1.125224829
16.47028114,-5.102096081,-9.891928673,-0.8877372146
16.47583614,-5.171487808,-9.796813965,-0.6388836503
16.48139114,-5.134399414,-9.744172096,-0.3583251834
16.48694614,-5.127819061,-9.739984512,-0.04965107143
16.49250114,-5.068596363,-9.846465111,0.2536391914
16.49805614,-5.127220631,-9.973882675,0.5796613097
16.50361114,-5.32163763,-10.07856941,1.06660068
16.50916614,-5.316852093,-10.62233829,10.01156998
16.51472114,-5.55194664,-11.78584766,24.46900368
16.52027614,-5.740381718,-11.78883934,17.78585052
16.52583114,-5.589633465,-11.08175945,8.158926964
16.53138614,-5.788238049,-10.36810017,2.089532375
16.53694114,-5.528616905,-9.843474388,-1.178465128
16.54249614,-4.555335999,-9.377471924,-2.382653236
16.54805114,-3.437289715,-8.928219795,-2.459223509
16.55360614,-2.892324448,-8.59142971,-2.146361828
16.55916114,-2.96291256,-8.43948555,-1.810768485
16.56471614,-3.383451223,-8.502297401,-1.552343726
16.57027114,-3.784249067,-8.726025581,-1.371087432
16.57582614,-4.00139761,-9.017352104,-1.164706469
16.58138114,-4.083950043,-9.372686386,-0.9290133715
16.58693614,-4.070191383,-9.727422714,-0.7453642488
16.59249114,-3.841676712,-9.997213364,-0.5808576941
16.59804614,-3.665804386,-10.09352398,-0.4893322289
16.60360114,-3.726222992,-9.994221687,-0.4929214716
16.60915614,-4.031906128,-9.745368004,-0.6466603279
16.61471114,-4.359723091,-9.44865799,-0.8673982024
16.62026614,-4.540380955,-9.158528328,-1.082154036
16.62582114,-4.554139614,-8.883354187,-1.241874933
16.63137614,-4.503292084,-8.612366676,-1.331605792
16.63693114,-4.512265205,-8.386244774,-1.371087432
16.64248614,-4.686343193,-8.230711937,-1.371087432
16.64804114,-4.986642361,-8.115258217,-1.31425786
16.65359614,-5.409573555,-8.057231903,-0.9463613629
16.65915114,-6.206982136,-8.142775536,2.344966173
16.66470614,-6.985247612,-8.610571861,8.480761528
16.67026114,-7.005586624,-9.198010445,9.946365356
16.67581614,-6.803991318,-9.650253296,6.178267956
16.68137114,-6.817749977,-10.0893364,2.479562521
16.68692614,-6.703492641,-10.60499001,0.3308077157
16.69248114,-6.259624004,-11.25823021,-0.5216353536
16.69803614,-5.610570908,-11.98564816,-0.394217521
16.70359114,-5.098506927,-12.78186035,0.2015953064
16.70914614,-4.943571568,-13.53380489,0.8476574421
16.71470114,-4.919643402,-14.09013653,1.417747378
16.72025614,-5.007579803,-14.45803261,1.487139225
16.72581114,-4.710869789,-14.7212429,1.213759303
16.73136614,-4.100101471,-14.85942841,0.7220342159
16.73692114,-3.504886866,-14.95454311,0.1387837082
16.74247614,-2.919841766,-15.04427433,-0.3954139352
16.74803114,-2.287538528,-15.20638752,-0.866201818
16.75358614,-1.677368641,-15.44866085,-1.257428288
16.75914114,-1.279561877,-15.68555069,-1.427916884
16.76469614,-0.9104689956,-15.79502201,-1.610369682
16.77025114,-0.5084748268,-16.00200081,-1.629512191
16.77580614,-0.02811566554,-16.27478409,-1.615753531
16.78136114,0.4803591371,-16.50748444,-1.596012712
16.78691614,1.001396298,-16.68694687,-1.557129383
16.79247114,1.49132669,-16.67498207,-1.484746456
16.79802614,1.968694806,-16.48176193,-1.39022994
16.80358114,2.203789711,-16.01097488,-1.250848055
16.80913614,2.107478619,-15.29552078,-0.9720842242
16.81469114,1.737787485,-14.54297829,-0.6538388133
16.82024614,1.310668588,-13.97528076,-0.3780659735
16.82580114,0.9672985673,-13.55713463,-0.1082752272
16.83135614,0.7579265833,-13.27119255,0.2063809484
16.83691114,0.7531409264,-13.02652645,0.4103690982
16.84246614,0.8057830334,-12.73519993,0.5425725579
16.84802114,0.7836494446,-12.4115715,0.6149554253
16.85357614,0.7202396393,-12.00180054,0.6394818425
16.85913114,0.7256234884,-11.52144146,0.5180460811
16.86468614,0.9188438654,-11.03330517,0.3104687333
16.87024114,1.229312658,-10.46321487,0.1525424421
16.87579614,1.565504193,-9.820742607,-0.04366901144
16.88135114,1.765903115,-9.129216194,-0.1268195957
16.88690614,1.827518344,-8.445467949,-0.185443759
16.89246114,1.87956214,-7.858029366,-0.2919243574
16.89801614,1.877767563,-7.359126091,-0.4127618968
16.90357114,1.72223413,-6.954140663,-0.5246263742
16.90912614,1.52542448,-6.707680225,-0.6071787477
16.91468114,1.332802176,-6.570092678,-0.7208378315
16.92023614,1.135394335,-6.538986206,-0.8883354068
16.92579114,0.8626125455,-6.628118515,-1.12283206
16.93134614,0.590429008,-6.766304016,-1.357328653
16.93690114,0.3349951804,-6.892525673,-1.604985833
16.94245614,-0.02093719877,-7.01575613,-1.893320918
16.94801114,-0.4031906128,-7.058228493,-2.309073925
16.95356614,-0.8931210637,-7.00139904,-2.851048231
16.95912114,-1.326221943,-6.847660065,-3.218346357
16.96467614,-1.783251047,-6.790232658,-3.394218922
16.97023114,-2.165504456,-6.625725746,-3.426522017
16.97578614,-2.327618122,-6.382854462,-3.293122053
16.98134114,-2.361716032,-6.11485815,-3.056232691
16.98689614,-2.326421738,-5.871388435,-2.754138947
16.99245114,-2.18105793,-5.701498032,-2.397010088
16.99800614,-1.894517303,-5.574080467,-2.056631088
17.00356114,-1.532602906,-5.477170944,-1.695913076
17.00911614,-1.37587297,-5.372485161,-1.401595831
17.01467114,-1.347159147,-5.291129112,-1.24666059
17.02022614,-1.383051515,-5.234897614,-1.179661512
17.02578114,-1.395015597,-5.225326538,-1.11984098
17.03133614,-1.306481123,-5.242076397,-1.071386337
17.03689114,-1.184447169,-5.322834015,-1.030708313
17.04244614,-1.077966571,-5.477170944,-0.9900303483
17.04800114,-0.9678967595,-5.680561066,-0.9619147182
17.05355614,-0.8835497499,-5.930611134,-0.9810572863
17.05911114,-0.8321040869,-6.175875187,-1.034297585
17.06466614,-0.8554341197,-6.482754707,-1.094118118
17.07022114,-0.8937192559,-6.803392887,-1.137188911
17.07577614,-0.9337990284,-7.133004189,-1.145563841
17.08133114,-1.01036942,-7.486543655,-1.199402332
17.08688614,-1.185643673,-7.832306862,-1.293918848
17.09244114,-1.450648785,-8.233104706,-1.40697968
17.09799614,-1.774278045,-8.657830238,-1.490130305
17.10355114,-2.191825628,-9.099306107,-1.56191504
17.10910614,-2.73798728,-9.537791252,-1.636690736
17.11466114,-3.318845034,-10.01037312,-1.636092424
17.12021614,-4.107280254,-10.50867844,-1.574477315
17.12577114,-5.340780258,-11.07518005,-1.459023595
17.13132614,-7.034300327,-11.69372463,-1.012163997
17.13688114,-9.20758152,-12.28834057,-0.08913264424
17.14243614,-11.47956657,-12.63829136,1.041476011
17.14799114,-13.29272842,-12.70887947,2.169093609
17.15354614,-14.49332714,-12.54676533,3.135794163
17.15910114,-15.2608242,-12.25843048,3.524029493
17.16465614,-15.67837238,-11.87976646,2.687737942
17.17021114,-16.00259972,-11.47837067,1.686939955
17.17576614,-15.73879051,-11.11705399,0.6598208547
17.18132114,-15.47199154,-10.64985561,-0.9260223508
17.18687614,-15.34277916,-10.02772141,-2.428116798
17.19243114,-14.99761391,-9.148359299,-3.309871912
17.19798614,-15.08375549,-8.199604988,-3.811168194
17.20354114,-15.50249958,-7.466204643,-3.577867985
17.20909614,-15.078372,-7.221538544,-2.505883455
17.21465114,-13.22871971,-7.511668682,-1.107278705
17.22020614,-10.55174923,-8.192426682,-0.2632105052
17.22576114,-7.694121361,-9.159127235,0.2703889608
17.23131614,-4.807180882,-10.06899738,0.5533402562
17.23687114,-2.566302299,-10.80897808,0.5048855543
17.24242614,-1.047458172,-11.50887871,0.2500499785
17.24798114,0.04486542568,-12.34098244,0.02931207791
17.25353614,0.7214360237,-13.16770267,-0.06879365444
17.25909114,1.434497118,-13.87179089,0.09571290761
17.26464614,2.047657967,-14.3569355,0.7764709592
17.27020114,3.144168854,-14.883955,2.076371908
17.27575614,4.25802803,-14.93061543,3.733401537
17.28131114,4.829912663,-14.40539074,4.301696777
17.28686614,4.428516388,-13.3710928,3.506083488
17.29242114,3.890131474,-12.15912819,2.726621389
17.29797614,3.48933363,-11.06979561,2.210369825
17.30353114,3.157927752,-10.10907745,1.929213285
17.30908614,2.815753937,-9.275178909,1.619342685
17.31464114,2.528017044,-8.538787842,1.320838094
17.32019614,2.349751949,-7.919644833,1.158126116
17.32575114,2.0769701,-7.430312634,1.097109199
17.33130614,1.768295884,-7.041478634,1.063011408
17.33686114,1.546361685,-6.811169624,0.9906286001
17.34241614,1.335793257,-6.800402164,0.8608179688
17.34797114,1.045065284,-6.989434719,0.7728816867
17.35352614,0.7657032609,-7.393223763,0.6023930907
17.35908114,0.500099957,-8.096115112,0.4217349887
17.36463614,0.4229314029,-9.080163956,0.2404786795
17.37019114,0.5718846321,-10.1712904,0.06281159073
17.37574614,0.7633104324,-11.2253294,-0.1746760458
17.38130114,1.037886858,-12.23689461,-0.4767699242
17.38685614,1.280758262,-13.1772747,-0.7345965505
17.39241114,1.532602906,-14.04467297,-0.9822536707
17.39796614,1.887937069,-14.73799324,-1.225723386
17.40352114,2.187039852,-15.17946911,-1.418943882
17.40907614,2.37248373,-15.4103756,-1.691127419
17.41463114,2.517847538,-15.24228001,-1.93040967
17.42018614,2.438286304,-14.63569927,-2.164906263
17.42574114,2.00099802,-13.68814182,-2.387438774
17.43129614,1.37587297,-12.67179012,-2.566302299
17.43685114,0.799800992,-11.88634682,-2.679363251
17.44240614,0.3906283081,-11.40957642,-2.780459881
17.44796114,0.08075776696,-11.07518005,-2.803191662
17.45351614,-0.01734796353,-10.84546852,-2.968296528
17.45907114,-0.06759724021,-10.55055332,-3.512065411
17.46462614,-0.2177468538,-10.24965572,-3.814757586
17.47018114,-0.4522434771,-10.01575756,-4.064209461
17.47573614,-0.4863412082,-9.874580383,-4.408775806
17.48129114,-0.3511467278,-9.817152977,-4.727619171
17.48684614,0.04247260094,-9.807581902,-5.19182682
17.49240114,0.2219343036,-9.628120422,-6.11784935
17.49795614,0.1040877849,-9.294919968,-7.068996429
17.50351114,0.123828575,-9.175278664,-7.024130821
17.50906614,-0.2207378894,-9.062815666,-6.634100914
17.51462114,-0.8697910309,-8.852247238,-6.151947021
17.52017614,-1.417149186,-8.625527382,-5.589035511
17.52573114,-1.731805444,-8.502297401,-5.075176716
17.53128614,-1.850250125,-8.432307243,-4.749154568
17.53684114,-1.886740685,-8.34556675,-4.491926193
17.54239614,-1.821536183,-8.229515076,-4.223930359
17.54795114,-1.588235974,-8.14696312,-3.969692707
17.55350614,-1.344766378,-8.126624107,-3.775275946
17.55906114,-1.204187989,-8.185248375,-3.593421459
17.56461614,-1.168295622,-8.198408127,-3.433700562
17.57017114,-1.302293777,-8.171489716,-3.340978622
17.57572614,-1.588834286,-8.107481003,-3.316452265
17.58128114,-2.048854351,-7.980063438,-3.322434187
17.58683614,-2.516052961,-7.87358284,-3.336193085
17.59239114,-2.897708178,-7.774878979,-3.309871912
17.59794614,-3.20518589,-7.668996811,-3.263810158
17.60350114,-3.360719442,-7.594819069,-3.200400352
17.60905614,-3.46420908,-7.575078487,-3.081955671
17.61461114,-3.59102869,-7.630711555,-3.027518749
17.62016614,-3.693321705,-7.755736351,-3.006581545
17.62572114,-3.844069481,-7.962715626,-2.967698336
17.63127614,-4.082155228,-8.218149185,-2.921038151
17.63683114,-4.290330887,-8.520243645,-2.900699139
17.64238614,-4.527220249,-8.846264839,-2.870789051
17.64794114,-4.692325115,-9.08853817,-2.799602509
17.65349614,-4.7844491,-9.426525116,-2.742174864
17.65905114,-4.916652203,-9.839286804,-2.74396944
17.66460614,-5.047659397,-10.20419216,-2.620140791
17.67016114,-5.209773064,-10.52363396,-2.50707984
17.67571614,-5.450251579,-10.80419254,-2.321038008
17.68127114,-5.705685616,-10.93579769,-2.132004976
17.68682614,-5.910870075,-10.99741268,-1.919641972
17.69238114,-6.04187727,-11.01595688,-1.694118381
17.69793614,-6.095117569,-10.8741827,-1.54217422
17.70349114,-6.032904148,-10.71386337,-1.208973646
17.70904614,-5.943771362,-10.47637558,-0.9086744189
17.71460114,-5.767899036,-10.08574772,-0.5629115105
17.72015614,-5.623731613,-9.649655342,-0.1680957973
17.72571114,-5.594419479,-9.337990761,0.1878365725
17.73126614,-5.544169903,-9.087342262,0.484546572
17.73682114,-5.449055195,-8.883354187,0.8452646136
17.74237614,-5.402993679,-8.773882866,1.377667665
17.74793114,-5.544768333,-8.772088051,3.002394199
17.75348614,-7.17069149,-8.95513916,14.02433395
17.75904114,-9.157930374,-8.91505909,18.40977859
17.76459614,-9.151947975,-8.603992462,9.892526627
17.77015114,-8.361120224,-8.531010628,3.071187973
17.77570614,-7.226324558,-8.674580574,-0.1698904037
17.78126114,-6.326622963,-8.88634491,-1.087537885
17.78681614,-5.618347645,-9.0418787,-1.098903775
17.79237114,-5.033302307,-9.050851822,-0.9631111026
17.79792614,-4.681557655,-8.974281311,-0.9242277741
17.80348114,-5.030909538,-8.740981102,-0.9188438654
17.80903614,-6.203990936,-8.453842163,-1.082752228
17.81459114,-7.534400463,-8.307880402,-1.228714466
17.82014614,-8.350951195,-8.348558426,-1.185045362
17.82570114,-8.87617588,-8.441280365,-0.917647481
17.83125614,-9.25783062,-8.521439552,-0.4612165689
17.83681114,-9.5754776,-8.643473625,0.005383851007
17.84236614,-10.06181908,-8.813961983,0.5096712112
17.84792114,-10.57627583,-8.984451294,1.301695466
17.85347614,-10.88495064,-9.190832138,2.100898266
17.85903114,-10.51765156,-9.466604233,2.312064886
17.86458614,-9.521040916,-9.614361763,1.832303882
17.87014114,-8.426324844,-9.699306488,1.110269666
17.87569614,-7.42612505,-9.767501831,0.6275177598
17.88125114,-6.382256031,-9.912865639,0.7585247755
17.88680614,-5.374279499,-10.1084795,1.478166223
17.89236114,-4.406980991,-10.40459061,2.474776745
17.89791614,-3.529413462,-10.77847004,3.302693367
17.90347114,-2.815753937,-11.23131084,3.71186614
17.90902614,-2.12183547,-11.86122227,3.754936934
17.91458114,-1.37048912,-12.62333584,3.802793503
17.92013614,-0.8524430394,-13.46740437,3.715455294
17.92569114,-0.4618147612,-14.40539074,3.52582407
17.93124614,-0.0484546572,-15.39721584,3.150151014
17.93680114,0.3978067636,-16.3639164,2.589632273
17.94235614,0.8769695163,-17.22473335,1.771286964
17.94791114,1.444666624,-18.01915169,0.9924231768
17.95346614,1.945364833,-18.80698776,0.3577269912
17.95902114,2.037488461,-19.4267292,-0.1495514214
17.96457614,1.878963947,-19.73001862,-0.3547359705
17.97013114,1.93340075,-19.71745682,-0.4719842672
17.97568614,2.082952023,-19.47637939,-0.4863412082
17.98124114,2.130808592,-18.85723686,-0.4456632137
17.98679614,1.901695848,-17.60938072,-0.2793620527
17.99235114,1.411765337,-15.8626194,-0.05503492057
17.99790614,0.7022934556,-14.19183064,0.05443671346
18.00346114,-0.1298106313,-12.97926807,0.04785645381
18.00901614,-0.8739784956,-12.03230858,0.02991028316
18.01457114,-1.275374413,-11.17687416,-0.003589233849
18.02012614,-1.481755376,-10.42014408,-0.2877369225
18.02568114,-1.743171334,-9.804591179,-0.4671986103
18.03123614,-1.954337835,-9.31525898,-0.3583251834
18.03679114,-2.062014818,-8.796614647,-0.1764706671
18.04234614,-2.024926186,-8.243273735,-0.05084748194
18.04790114,-1.970489502,-7.765905857,-0.2063809484
18.05345614,-1.990828395,-7.251449108,-0.5533402562
18.05901114,-2.194816589,-6.802794933,-0.8255237937
18.06456614,-2.207977057,-6.437889099,-1.009771109
18.07012114,-2.187638044,-6.320641041,-1.070189953
18.07567614,-2.108076811,-6.232106686,-0.9840483069
18.08123114,-2.038086653,-6.260222435,-0.799800992
18.08678614,-1.917847395,-6.357729912,-0.6801598072
18.09234114,-1.689931035,-6.466603279,-0.5958128572
18.09789614,-1.436291814,-6.585646152,-0.6029912829
18.10345114,-1.252642632,-6.728019238,-0.6951149702
18.10900614,-1.1395818,-6.829713821,-0.837487936
18.11456114,-1.026520967,-6.859624386,-0.8679963946
18.12011614,-0.9349954724,-6.812964439,-0.8464609981
18.12567114,-1.041476011,-6.623931408,-0.7495517135
18.13122614,-1.385444283,-6.444469452,-0.5970092416
18.13678114,-1.697109461,-6.327819347,-0.4217349887
18.14233614,-1.733001828,-6.321238995,-0.1232303679
18.14789114,-1.782652855,-6.366104603,0.07896314561
18.15344614,-1.618744493,-6.306882381,0.1800599098
18.15900114,-1.245464206,-6.358327866,0.3619144261
18.16455614,-1.060020447,-6.498906136,0.4342973232
18.17011114,-0.8638089895,-6.636493683,0.4319044948
18.17566614,-0.4271188378,-6.734599113,0.4486542344
18.18122114,-0.1591227055,-6.796214581,0.2889333367
18.18677614,0.2195414752,-6.937391281,0.1746760458
18.19233114,0.5700899959,-7.096513748,0.1938186288
18.19788614,0.7627122402,-7.269395351,0.1986042857
18.20344114,1.036092162,-7.453642368,0.2739782035
18.20899614,1.299302697,-7.619943619,0.4259224236
18.21455114,1.426122308,-7.795217991,0.4342973232
18.22010614,1.447657704,-7.931608677,0.3547359705
18.22566114,1.335195065,-8.01775074,0.2697907388
18.23121614,1.135394335,-8.059026718,0.1489532143
18.23677114,0.8165507317,-8.018348694,-0.02213360928
18.24232614,0.3409772217,-7.97467947,-0.3547359705
18.24788114,-0.3308077157,-7.980661869,-0.7722834945
18.25343614,-1.006780148,-8.015357971,-1.26640141
18.25899114,-1.696511269,-8.160123825,-1.829312921
18.26454614,-2.489732027,-8.328219414,-2.389233351
18.27010114,-3.311666489,-8.495717049,-2.900699139
18.27565614,-4.201198578,-8.783453941,-3.160918713
18.28121114,-5.254638672,-9.090332985,-3.236890793
18.28676614,-6.3373909,-9.391828537,-3.116053343
18.29232114,-7.630711555,-9.755537987,-2.858824968
18.29787614,-9.078369141,-10.0767746,-2.492124796
18.30343114,-10.66002464,-10.18863869,-2.091925144
18.30898614,-12.33978653,-10.12044334,-1.817348838
18.31454114,-13.89571953,-9.973284721,-1.694118381
18.32009614,-14.94078445,-9.818947792,-1.701296926
18.32565114,-15.68255997,-9.562317848,-1.630708575
18.33120614,-15.90389538,-9.32303524,-1.601396561
18.33676114,-15.79203129,-8.973683357,-1.640878081
18.34231614,-15.26321697,-8.517850876,-1.764706731
18.34787114,-14.06740475,-8.077570915,-1.798804402
18.35342614,-12.21894836,-7.81196785,-1.633101463
18.35898114,-10.80419254,-7.664809227,-1.421336651
18.36453614,-10.10907745,-7.721040249,-1.322034478
18.37009114,-9.133403778,-7.804191113,-1.11445713
18.37564614,-7.785646915,-7.749754429,-0.8703892231
18.38120114,-6.25543642,-7.724629879,-0.5814558864
18.38675614,-5.005186558,-7.780262947,-0.4785645306
18.39231114,-3.90030098,-7.871190071,-0.5473581553
18.39786614,-2.991626501,-8.08295536,-0.8081758618
18.40342114,-2.364706993,-8.328219414,-1.163509965
18.40897614,-1.845464468,-8.742177963,-1.516451359
18.41453114,-1.549352646,-9.454042435,-1.875972986
18.42008614,-1.619940877,-10.51884842,-2.244467735
18.42564114,-2.221735716,-11.86481094,-2.636292458
18.43119614,-2.819941521,-13.50030518,-2.784647465
18.43675114,-3.095116138,-15.23629856,-2.292324066
18.44230614,-3.257229805,-16.61336708,-1.475773335
18.44786114,-3.36012125,-17.34437561,-0.8111668825
18.45341614,-3.035295486,-17.28874207,-0.3206382394
18.45897114,-2.199602127,-16.21675682,0.07118647546
18.46452614,-1.567298889,-14.32164192,1.209571838
18.47008114,-1.534995675,-11.93719387,5.82532692
18.47563614,-1.159920812,-9.507881165,9.552147865
18.48119114,-0.2255235314,-7.771887779,8.833105087
18.48674614,0.5688936114,-6.866802692,7.25743103
18.49230114,0.9774680734,-6.374479294,5.042873859
18.49785614,1.009172916,-6.230910301,2.938386202
18.50341114,1.381256819,-6.285944939,1.811366796
18.50896614,1.829911113,-6.519843578,1.402792215
18.51452114,2.042274237,-6.84945488,1.262812138
18.52007614,2.025524378,-7.196413994,1.173679471
18.52563114,1.843669891,-7.661818027,1.024726272
18.53118614,1.40697968,-8.283353806,0.7776673436
18.53674114,1.012163997,-9.077172279,0.5036891699
18.54229614,0.8183453679,-10.16650486,0.313459754
18.54785114,0.5988038778,-11.46700478,0.1860419661
18.55340614,0.3984049559,-12.87936783,0.1399801224
18.55896114,0.2829512656,-14.33659649,0.09272187948
18.56451614,0.4791627228,-15.73639774,-0.02093719877
18.57007114,0.7028916478,-16.91905022,-0.2823530734
18.57562614,0.9738788009,-17.68834305,-0.6616154313
18.58118114,1.194018483,-17.94018745,-1.150349498
18.58673614,1.189232826,-17.58724594,-1.822732687
18.59229114,0.6412764788,-16.62353706,-2.505883455
18.59784614,-0.2560320199,-15.31765461,-3.072384357
18.60340114,-0.8099704385,-14.21216965,-3.708276987
18.60895614,-1.102493048,-13.1324091,-4.374678135
18.61451114,-1.530210137,-12.03589821,-4.731806755
18.62006614,-1.873580098,-11.07936668,-4.645665169
18.62562114,-2.129014015,-10.40100193,-4.200001717
18.63117614,-2.21216464,-9.84885788,-3.74536562
18.63673114,-2.140978098,-9.333204269,-3.461816072
18.64228614,-2.031506538,-8.902496338,-3.30927372
18.64784114,-1.944168448,-8.612366676,-3.382254839
18.65339614,-2.191227436,-8.397012711,-3.570091486
18.65895114,-2.935395241,-8.254639626,-4.034298897
18.66450614,-3.873979807,-8.051848412,-4.639084816
18.67006114,-4.728217602,-7.838887215,-5.24566555
18.67561614,-5.381458282,-7.701299667,-5.991029739
18.68117114,-5.983253002,-7.586444378,-7.268796921
18.68672614,-5.839085579,-7.521838188,-8.434102058
18.69228114,-5.447260857,-7.414160728,-8.892925262
18.69783614,-4.98963356,-7.432106972,-9.043074608
18.70339114,-4.415356159,-7.41236639,-8.63031292
18.70894614,-3.95653224,-7.389634609,-8.07936573
18.71450114,-3.937987804,-7.384849072,-7.604390144
18.72005614,-3.839882135,-7.419544697,-7.088737011
18.72561114,-3.61017108,-7.544569969,-6.620342255
18.73116614,-3.437887907,-7.654639721,-6.245266914
18.73672114,-3.370888948,-7.841279984,-5.945566177
18.74227614,-3.291327477,-7.995018482,-5.685346603
18.74783114,-3.233899832,-8.080561638,-5.341378212
18.75338614,-3.114258766,-8.110472679,-4.893322468
18.75894114,-3.015554667,-8.16610527,-4.441078663
18.76449614,-2.866003275,-8.20498848,-4.055834293
18.77005114,-2.886940479,-8.280363083,-3.812364578
18.77560614,-2.877369165,-8.359924316,-3.75134778
18.78116114,-2.798406124,-8.495118141,-3.752544165
18.78671614,-2.677568436,-8.734400749,-3.742972851
18.79227114,-2.66799736,-9.078967094,-3.701696634
18.79782614,-2.612962246,-9.576076508,-3.719642878
18.80338114,-2.62253356,-10.08215809,-3.565903902
18.80893614,-2.642872572,-10.62473106,-3.352344513
18.81449114,-2.681157827,-11.20738316,-3.037688255
18.82004614,-2.775674343,-11.67338562,-2.711068153
18.82560114,-3.023929596,-11.93420315,-2.319243431
18.83115614,-3.089133978,-11.97787189,-1.852642894
18.83671114,-2.952743053,-11.98564816,-1.181456208
18.84226614,-2.921038151,-11.89771271,0.01316052489
18.84782114,-5.066203594,-12.68973637,37.85744476
18.85337614,-8.094919205,-13.11924839,60.12864304
18.85893114,-5.954539299,-11.51844978,27.71127892
18.86448614,-4.852046013,-10.02831936,11.43649578
18.87004114,-3.954737663,-8.465208054,1.225723386
18.87559614,-3.16570425,-7.189833641,-4.70488739
18.88115114,-2.825325251,-6.5760746,-7.906484127
18.88670614,-2.742174864,-6.518048763,-9.163912773
18.89226114,-2.912065268,-6.705287457,-9.34815979
18.89781614,-3.224328518,-7.191030025,-9.095118523
18.90337114,-3.879961967,-7.831708431,-8.739784241
18.90892614,-4.711467743,-8.700901031,-8.049455643
18.91448114,-5.3210392,-10.00558758,-7.096513748
18.92003614,-5.753541946,-11.51904774,-5.860620975
18.92559114,-5.65304327,-12.77169132,-4.506881237
18.93114614,-5.092525005,-13.75633717,-2.681157827
18.93670114,-4.449453831,-15.15793324,4.70488739
18.94225614,-4.323232174,-16.46920013,11.11525917
18.94781114,-4.406383038,-16.79522133,10.16889763
18.95336614,-4.158127785,-16.34297943,5.366502762
18.95892114,-3.640679598,-15.39661694,1.21854496
18.96447614,-3.200400352,-14.27438354,-1.537986755
18.97003114,-3.184846878,-13.47039509,-2.956930637
18.97558614,-3.790230989,-13.25085354,-3.33439827
18.98114114,-4.767699242,-13.48355579,-2.970689297
18.98669614,-5.956333637,-13.86341572,-2.201396942
18.99225114,-7.100102901,-14.23669624,-1.24366951
18.99780614,-7.750950813,-14.70748425,-0.2183450609
19.00336114,-8.120641708,-15.26740456,0.7046862841
19.00891614,-8.564510345,-15.85783386,1.350150228
19.01447114,-8.994620323,-16.39143372,1.755733609
19.02002614,-9.309276581,-16.73719597,2.017149448
19.02558114,-9.721440315,-16.87657738,2.227717876
19.03113614,-10.23769188,-16.65225029,2.434697151
19.03669114,-10.54217815,-16.13181114,2.744567633
19.04224614,-10.19402313,-15.53300858,3.268595695
19.04780114,-9.156734467,-15.07298851,3.73699069
19.05335614,-8.018946648,-14.90130329,3.839882135
19.05891114,-7.176074982,-14.96172142,3.664009571
19.06446614,-6.425925255,-15.21177197,3.34576416
19.07002114,-5.828317642,-15.56052589,2.672782898
19.07557614,-5.027320385,-15.9948225,1.775474429
19.08113114,-4.043870449,-16.43211174,0.77108711
19.08668614,-3.056830883,-16.91127396,-0.1477568001
19.09224114,-2.162513494,-17.382061,-0.8081758618
19.09779614,-1.295713425,-17.79243088,-1.197607756
19.10335114,-0.6610172391,-17.94736671,-1.420738459
19.10890614,-0.1405783296,-17.88156319,-1.500898004
19.11446114,0.3708875179,-17.63629913,-1.417747378
19.12001614,0.6999006271,-17.22293854,-1.345962763
19.12557114,1.05822587,-16.6785717,-1.378265858
19.13112614,1.475773335,-16.05583954,-1.591825247
19.13668114,2.064407825,-15.35414505,-1.862214208
19.14223614,2.715853691,-14.41017628,-2.202593327
19.14779114,3.120838881,-13.32383442,-2.545963287
19.15334614,3.074178934,-12.38943768,-2.934198856
19.15890114,3.02512598,-11.54058361,-3.377469063
19.16445614,3.111267567,-10.79043388,-3.93140769
19.17001114,3.288934708,-10.22692394,-4.454837322
19.17556614,3.214757204,-9.861420631,-5.020142078
19.18112114,3.680161238,-9.610174179,-6.793223381
19.18667614,3.764508247,-9.409176826,-10.14078236
19.19223114,3.157927752,-9.231510162,-10.95374393
19.19778614,2.711068153,-8.994620323,-10.23051357
19.20334114,2.280359983,-9.001200676,-9.26142025
19.20889614,2.160120726,-8.801400185,-7.560721397
19.21445114,2.16131711,-8.492725372,-6.199205399
19.22000614,1.803590059,-8.205587387,-4.914857864
19.22556114,0.4917250574,-7.847261906,-3.023929596
19.23111614,-4.810171604,-7.47697258,11.31924725
19.23667114,-8.906085968,-6.667600155,12.88235855
19.24222614,-8.462217331,-5.632704735,5.312664509
19.24778114,-8.19122982,-5.126024246,1.924427629
19.25333614,-8.11824894,-5.012365341,0.2805584669
19.25889114,-7.864609718,-5.057828903,0.5647061467
19.26444614,-7.421937466,-5.185246468,2.040479422
19.27000114,-7.565506935,-5.580062389,3.46121788
19.27555614,-7.009773731,-6.037091732,4.236492634
19.28111114,-4.753342152,-6.422934055,4.231108665
19.28666614,-1.865205288,-6.758527756,3.681955814
19.29222114,-0.3714857101,-6.831508636,2.444866419
19.29777614,-0.009571290575,-6.707081795,0.912861824
19.30333114,0.2739782035,-6.43549633,-0.2685943544
19.30888614,0.2488535494,-6.058627129,-0.8620143533
19.31444114,0.1704886109,-5.614758492,-0.8566305041
19.31999614,0.285344094,-5.258825779,-0.6017948985
19.32555114,0.313459754,-5.0291152,-0.3571287692
19.33110614,0.7956135273,-4.80957365,-0.2338984162
19.33666114,1.253839016,-4.568496704,-0.3918247223
19.34221614,1.730010748,-4.363910198,-0.5012963414
19.34777114,2.079961061,-4.18145752,-0.566500783
19.35332614,2.330609322,-3.984049797,-0.4959124923
19.35888114,2.423929453,-3.836891174,-0.3499503136
19.36443614,2.486142635,-3.699902058,-0.1375873089
19.36999114,2.496312141,-3.498306751,-0.0568295382
19.37554614,2.400001049,-3.234498024,0.001794616925
19.38110114,2.343171597,-3.020938635,-0.2596212626
19.38665614,1.954337835,-2.997608662,-0.6777670383
19.39221114,0.9547362328,-3.113660574,-1.265803218
19.39776614,0.4815555513,-3.30927372,-1.382453322
19.40332114,-0.9086744189,-3.659224033,-1.597209096
19.40887614,-2.024926186,-3.971487284,-1.762912035
19.41443114,-2.756531715,-4.43748951,-1.608574986
19.41998614,-3.471985579,-4.792823792,-2.111067772
19.42554114,-2.590828657,-5.257031441,-2.187039852
19.43109614,-1.219741344,-5.617749214,-2.238485575
19.43665114,-0.4157529473,-5.720640659,-2.38624239
19.44220614,-0.01794617064,-5.697310925,-2.537588358
19.44776114,0.2033899277,-5.654240131,-2.710469961
19.45331614,0.2781656384,-5.696712494,-3.102294445
19.45887114,0.2656033039,-5.873781204,-3.738785267
19.46442614,0.05383851007,-6.136393547,-4.709074974
19.46998114,-0.242273286,-6.455835342,-5.878567219
19.47553614,-0.8452646136,-6.829713821,-6.769295216
19.48109114,-1.733001828,-7.214360237,-7.109076023
19.48664614,-2.492124796,-7.759923935,-6.887740135
19.49220114,-2.895315409,-8.414958954,-6.351149559
19.49775614,-2.919243574,-9.433105469,-5.236692429
19.50331114,-2.683550596,-10.8741827,-4.045066833
19.50886614,-2.905484915,-12.9074831,-3.446262836
19.51442114,-2.796013355,-15.46959877,-3.233899832
19.51997614,-1.922633052,-18.2093811,-2.9491539
19.52553114,-1.838286042,-20.60160446,-2.640479803
19.53108614,-2.693720102,-22.70668983,-2.682952404
19.53664114,-3.507279873,-24.03410912,-2.635095835
19.54219614,-4.563711166,-24.78425789,-1.787438512
19.54775114,-5.834897995,-25.68395996,-0.7573283911
19.55330614,-7.275377274,-26.13201523,0.5497509837
19.55886114,-9.678369522,-24.87937355,4.301696777
19.56441614,-11.77627659,-21.26860428,8.488538742
19.56997114,-11.53460121,-17.63450432,8.130212784
19.57552614,-10.21914768,-15.07717514,5.600401402
19.58108114,-8.837890625,-13.44227982,3.960719585
19.58663614,-7.715058327,-12.4109726,3.431307554
19.59219114,-7.052246571,-11.80080318,3.204587698
19.59774614,-6.352345943,-11.43589783,2.688336134
19.60330114,-5.736792088,-11.02911758,2.035095692
19.60885614,-5.131408215,-10.55832958,1.357328653
19.61441114,-4.773082733,-10.09830952,0.7178468108
19.61996614,-4.527220249,-9.677771568,0.2985046208
19.62552114,-4.426123619,-9.392427444,0.05742774159
19.63107614,-4.350749969,-9.258428574,-0.02153540403
19.63663114,-4.326223373,-9.246464729,0.02273181453
19.64218614,-4.4488554,-9.268598557,0.04905286431
19.64774114,-4.501497746,-9.276374817,0.03110669367
19.65329614,-4.38424921,-9.26142025,0.03050848842
19.65885114,-4.343571186,-9.247661591,-0.001794616925
19.66440614,-4.42313242,-9.283554077,-0.03649054468
19.66996114,-4.405784607,-9.264410973,-0.07597211748
19.67551614,-4.266402721,-9.229715347,-0.1495514214
19.68107114,-4.146163464,-9.202795982,-0.2249253243
19.68662614,-4.02712059,-9.200403214,-0.2955136001
19.69218114,-3.973282099,-9.189037323,-0.3846462369
19.69773614,-3.847658873,-9.085547447,-0.4402793646
19.70329114,-3.741178274,-8.883952141,-0.5347958803
19.70884614,-3.731008768,-8.733802795,-0.7351947427
19.71440114,-3.677170277,-8.545966148,-0.8961120844
19.71995614,-3.689134359,-8.322834969,-1.047458172
19.72551114,-3.6299119,-8.059624672,-1.16769743
19.73106614,-3.518645763,-7.7868433,-1.268794179
19.73662114,-3.439682484,-7.439285755,-1.323829174
19.74217614,-3.30927372,-7.100102901,-1.332203984
19.74773114,-3.272783279,-6.731608391,-1.31425786
19.75328614,-3.196810961,-6.330212116,-1.284945726
19.75884114,-3.018545866,-5.942574978,-1.242473125
19.76439614,-2.965305567,-5.624927998,-1.24666059
19.76995114,-2.861815929,-5.265406132,-1.264606714
19.77550614,-2.81395936,-4.999204636,-1.345962763
19.78106114,-2.787040234,-4.756931305,-1.44347024
19.78661614,-2.810370207,-4.551746845,-1.642672777
19.79217114,-2.880360365,-4.436293125,-1.975873351
19.79772614,-2.982653379,-4.461417675,-2.379063845
19.80328114,-3.190829039,-4.467400074,-2.958725214
19.80883614,-3.552145243,-4.466801643,-3.637090445
19.81439114,-4.065405846,-4.495515347,-4.169493675
19.81994614,-4.492524624,-4.484747887,-4.415954113
19.82550114,-4.571487427,-4.427918434,-4.551746845
19.83105614,-4.419543266,-4.352544308,-4.700700283
19.83661114,-4.200600147,-4.339384079,-4.934598446
19.84216614,-4.021736622,-4.370490551,-5.106283665
19.84772114,-4.079164505,-4.38724041,-5.148158073
19.85327614,-4.290330887,-4.365106583,-5.162514687
19.85883114,-4.377668858,-4.472185612,-4.928018093
19.86438614,-4.340580463,-4.528416634,-4.537988186
19.86994114,-4.24367094,-4.497908592,-4.082753658
19.87549614,-4.071387768,-4.434498787,-3.574877024
19.88105114,-3.749552965,-4.386044025,-3.014358282
19.88660614,-3.350549936,-4.186243057,-2.481357098
19.89216114,-3.119044304,-4.018745422,-2.081157446
19.89771614,-2.893520832,-3.874577999,-1.867598057
19.90327114,-2.764906645,-3.745963812,-1.843071699
19.90882614,-2.694318295,-3.662214994,-1.86580348
19.91438114,-2.408375978,-3.760919094,-1.835893154
19.91993614,-2.004587173,-4.054637909,-1.677368641
19.92549114,-1.743171334,-4.57806778,-1.509272933
19.93104614,-1.579861164,-5.239683151,-1.456630826
19.93660114,-1.526022673,-6.069394588,-1.520638824
19.94215614,-1.603191137,-7.165307522,-1.672582984
19.94771114,-1.794616938,-8.453244209,-1.884945989
19.95326614,-2.039283037,-9.788438797,-2.09671092
19.95882114,-2.285145521,-11.30967617,-2.215155602
19.96437614,-2.503490686,-13.08395386,-2.08235383
19.96993114,-2.775674343,-15.02632809,-1.592423439
19.97548614,-2.751147747,-17.34018707,2.050050735
19.98104114,-3.014956474,-19.67378807,7.28554678
19.98659614,-3.442673683,-21.12862396,8.992227554
19.99215114,-3.683152199,-21.56830597,7.1563344
19.99770614,-3.46121788,-21.40918159,3.483949661
20.00326114,-3.372085333,-20.65364838,-0.1351944804
20.00881614,-3.490530014,-19.42792511,-2.306082726
20.01437114,-3.668795347,-17.93001747,-3.07298255
20.01992614,-3.780061483,-16.50927925,-2.817548752
20.02548114,-3.775275946,-15.42413521,-2.070389748
20.03103614,-3.887738705,-14.64227962,-1.168893814
20.03659114,-4.235296249,-14.20559025,-0.4097708762
20.04214614,-4.734199524,-14.04826164,-0.08614161611
20.04770114,-5.280959606,-14.1122694,-0.08135596663
20.05325614,-5.801398277,-14.28455257,-0.3559323549
20.05881114,-6.163312912,-14.39701557,-0.70348984
20.06436614,-6.332605362,-14.40479279,-1.054038405
20.06992114,-6.189035892,-14.42214012,-1.298106313
20.07547614,-5.88395071,-14.48674679,-1.459023595
20.08103114,-5.839085579,-14.60040569,-1.558325768
20.08658614,-5.881557941,-14.82353592,-1.587637782
20.09214114,-5.849853039,-15.09572029,-1.430907965
20.09769614,-5.672784328,-15.38106441,-1.072582722
20.10325114,-5.288736343,-15.67717552,-0.5078766346
20.10880614,-4.84905529,-16.0127697,0.1226321608
20.11436114,-4.478765965,-16.30768394,0.8793623447
20.11991614,-4.269393921,-16.49671745,1.574477315
20.12547114,-3.911068678,-16.46261978,2.043470621
20.13102614,-3.604189157,-16.09532166,2.269592285
20.13658114,-3.497110367,-15.4103756,2.236092806
20.14213614,-3.580859184,-14.67278862,2.097907305
20.14769114,-3.802195072,-13.97288799,1.975873351
20.15324614,-3.950550079,-13.39083385,1.999203324
20.15880114,-3.961317778,-12.84108257,2.143370867
20.16435614,-3.845266104,-12.32064342,2.371885538
20.16991114,-3.661616802,-11.91924763,2.55254364
20.17546614,-3.429512978,-11.68056393,2.632703066
20.18102114,-3.280559778,-11.54417324,2.516052961
20.18657614,-3.175873756,-11.47777176,2.244467735
20.19213114,-2.952743053,-11.46341515,1.767697692
20.19768614,-2.483749866,-11.46580791,1.029511929
20.20324114,-1.943570137,-11.46221828,0.1256231815
20.20879614,-1.560718536,-11.42512989,-0.7824530005
20.21435114,-1.146760225,-11.48674488,-1.303490162
20.21990614,-0.8626125455,-11.55314636,-1.706680775
20.22546114,-0.5694918036,-11.67757225,-1.971685886
20.23101614,-0.2859423161,-11.81994534,-2.180459738
20.23657114,-0.1256231815,-12.00419331,-2.398804665
20.24212614,0.007178467698,-12.06102276,-2.754138947
20.24768114,-0.02033899166,-11.79422283,-3.504886866
20.25323614,-0.166301176,-11.33599758,-4.329812527
20.25879114,-0.4283152521,-10.74497032,-4.923830986
20.26434614,-0.956530869,-10.20837975,-5.378467083
20.26990114,-2.139183521,-9.77348423,-6.245865345
20.27545614,-2.962314367,-9.689137459,-7.298109055
20.28101114,-3.314059258,-9.625727654,-7.81196785
20.28656614,-3.822534084,-9.361320496,-7.85144949
20.29212114,-3.933202267,-9.02692318,-7.039085865
20.29767614,-4.367499352,-8.752346992,-5.658427238
20.30323114,-5.226522923,-8.578866959,-2.894119024
20.30878614,-6.865606308,-8.414361,1.291526079
20.31434114,-7.839485168,-8.280961037,3.675375462
20.31989614,-7.410571575,-8.313861847,3.704687595
20.32545114,-6.427719593,-8.370692253,4.138386726
20.33100614,-5.397609711,-8.361120224,5.528018475
20.33656114,-5.094917774,-8.459824562,6.550352097
20.34211614,-4.933402061,-8.58365345,6.419943333
20.34767114,-4.495515347,-8.64167881,5.36111927
20.35322614,-4.013959885,-8.700901031,3.970889091
20.35878114,-2.981456995,-8.761918068,2.629712105
20.36433614,-1.954936147,-8.827122688,1.268195987
20.36989114,-0.837487936,-8.693124771,0.09451649338
20.37544614,-0.1704886109,-8.399405479,-0.9984052777
20.38100114,0.204586342,-8.036892891,-1.899302959
20.38655614,0.3810569942,-7.690532207,-2.222932339
20.39211114,0.7022934556,-7.326224804,-2.094317913
20.39766614,0.8201399446,-7.008577347,-1.764706731
20.40322114,0.5641079545,-6.637091637,-1.355534077
20.40877614,0.2530409992,-6.166902065,-0.8883354068
20.41433114,0.4271188378,-5.766104221,-0.3433700502
20.41988614,0.4977070987,-5.407779217,0.1579262912
20.42544114,0.4815555513,-5.023731232,0.5425725579
20.43099614,0.6969096065,-4.750350952,0.956530869
20.43655114,0.7531409264,-4.363312244,1.081555843
20.44210614,0.6113662124,-3.745963812,1.068993568
20.44766114,0.4151547253,-3.153740168,0.9349954724
20.45321614,0.2883351147,-2.709273338,0.747158885
20.45877114,0.3672982752,-2.439482689,0.5270192027
20.46432614,0.5330012441,-2.315055847,0.2835494876
20.46988114,0.4163511395,-2.303091764,-0.07776673883
20.47543614,0.4522434771,-2.306082726,-0.2859423161
20.48099114,0.4695914388,-2.502892494,-0.3212364316
20.48654614,0.228514567,-2.69850564,-0.3080759048
20.49210114,0.0,-2.96889472,-0.1130608693
20.49765614,-0.3702892959,-3.228515863,0.07058826834
20.50321114,-0.6472585201,-3.434298754,0.327816695
20.50876614,-1.076770186,-3.514458179,0.4935196638
20.51432114,-1.339382529,-3.455235958,0.6604190469
20.51987614,-1.971087694,-3.372085333,0.7405785918
20.52543114,-2.241476536,-3.273381472,0.8554341197
20.53098614,-2.580659151,-3.176471949,0.7860422134
20.53654114,-2.683550596,-3.189632654,0.4725824594
20.54209614,-2.625524759,-3.18006134,0.07118647546
20.54765114,-2.721835852,-3.222533941,-0.3361915946
20.55320614,-2.55254364,-3.403192043,-0.7531409264
20.55876114,-2.538784742,-3.570091486,-1.585843205
20.56431614,-2.543570518,-3.741776466,-2.496910334
20.56987114,-2.74396944,-3.980460405,-3.408575773
20.57542614,-2.956332445,-4.32263422,-4.02712059
20.58098114,-2.759522676,-4.889732838,-4.159922123
20.58653614,-2.361716032,-5.604588985,-3.991228104
20.59209114,-1.953739643,-6.454638958,-3.534797192
20.59764614,-1.578066587,-7.341778278,-3.022733212
20.60320114,-1.199402332,-8.179265976,-2.720041037
20.60875614,-0.9463613629,-9.03051281,-2.472982168
20.61431114,-0.902692318,-9.819545746,-2.273181438
20.61986614,-1.056431174,-10.60319519,-2.128415823
20.62542114,-1.706082582,-11.11107159,-2.240280151
20.63097614,-2.775076151,-11.51246834,-2.49332118
20.63653114,-3.846462488,-11.87019539,-3.0448668
20.64208614,-4.931607246,-12.25843048,-3.901497364
20.64764114,-6.535397053,-12.77228928,-4.952544689
20.65319614,-7.797012806,-13.70489216,-4.948955536
20.65875114,-9.470193863,-15.38046551,-4.105485439
20.66430614,-11.67338562,-17.68654823,-3.990031719
20.66986114,-13.83410454,-20.16312027,-3.659822226
20.67541614,-15.60898018,-22.97169495,-0.6364908218
20.68097114,-15.91047573,-26.37010193,4.642673969
20.68652614,-14.70269871,-28.07857704,6.242276192
20.69208114,-12.96909904,-27.66581535,3.923032761
20.69763614,-11.12243748,-25.24667168,1.479960799
20.70319114,-10.18863869,-21.66940117,1.910070658
20.70874614,-9.55394268,-18.13759613,2.94377017
20.71430114,-8.677571297,-15.36311817,3.192623615
20.71985614,-7.511070251,-13.15274811,2.864208698
20.72541114,-6.499504566,-11.47777176,2.461616278
20.73096614,-5.778068542,-10.29332447,2.20618248
20.73652114,-5.263611794,-9.582057953,1.837089539
20.74207614,-4.676771641,-9.181260109,1.498505235
20.74763114,-4.144368649,-8.907281876,1.16769743
20.75318614,-3.68674159,-8.765507698,0.9613165259
20.75874114,-3.531806231,-8.613563538,0.717248559
20.76429614,-3.748356581,-8.475378036,0.5312066078
20.76985114,-4.059423447,-8.399405479,0.3170489967
20.77540614,-4.196412563,-8.445467949,0.0652044192
20.78096114,-4.320241451,-8.496315002,-0.1244267747
20.78651614,-4.42313242,-8.507680893,-0.2781656384
20.79207114,-4.500899315,-8.531609535,-0.3690928817
20.79762614,-4.420739651,-8.592027664,-0.4450650215
20.80318114,-4.393222332,-8.825926781,-0.4815555513
20.80873614,-4.433301926,-9.247661591,-0.456430912
20.81429114,-4.445266247,-9.778269768,-0.4067798555
20.81984614,-4.601397991,-10.4093771,-0.4426721931
20.82540114,-4.884349346,-10.90648556,-0.5036891699
20.83095614,-5.230112076,-11.2695961,-0.4767699242
20.83651114,-5.306084156,-11.5142622,-0.536590457
20.84206614,-5.174479008,-11.58245754,-0.6897311211
20.84762114,-4.869394302,-11.51605701,-0.8404789567
20.85317614,-4.603192329,-11.26301575,-1.019342422
20.85873114,-4.35852623,-10.82632637,-1.214955688
20.86428614,-4.080958843,-10.34177971,-1.357328653
20.86984114,-3.599403381,-9.795618057,-1.421934843
20.87539614,-3.034099102,-9.180662155,-1.432104349
20.88095114,-2.650649309,-8.505288124,-1.472184181
20.88650614,-2.461616278,-7.845467091,-1.488933921
20.89206114,-2.478366137,-7.275975227,-1.470389485
20.89761614,-2.360519648,-6.713063717,-1.371685624
20.90317114,-2.187638044,-6.186044693,-1.271785259
20.90872614,-2.0769701,-5.703292847,-1.16769743
20.91428114,-2.021337032,-5.296513081,-1.071386337
20.91983614,-2.042872429,-4.962115765,-0.9828519225
20.92539114,-2.154736757,-4.658227444,-0.9050851464
20.93094614,-2.314457655,-4.386641979,-0.8333004713
20.93650114,-2.491526604,-4.130609989,-0.7872386575
20.94205614,-2.723032236,-3.918246984,-0.7345965505
20.94761114,-3.083152056,-3.762713671,-0.7160521746
20.95316614,-3.431905985,-3.696911097,-0.7423732281
20.95872114,-3.787240028,-3.694518089,-0.7375875711
20.96427614,-4.162314892,-3.754936934,-0.7244270444
20.96983114,-4.618745804,-3.913461447,-0.8051848412
20.97538614,-4.983053207,-4.137788773,-0.9104689956
20.98094114,-5.337191105,-4.390829563,-1.013360381
20.98649614,-5.735595703,-4.648656368,-1.108475089
20.99205114,-6.27278471,-4.948955536,-1.222732425
20.99760614,-6.733402729,-5.162514687,-1.346560955
21.00316114,-6.887141705,-5.283352375,-1.461416483
21.00871614,-6.765706062,-5.355136871,-1.563111424
21.01427114,-6.659823418,-5.407180786,-1.802393675
21.01982614,-6.467799664,-5.444868088,-2.134397745
21.02538114,-6.254240036,-5.338387489,-2.379063845
21.03093614,-5.554339409,-5.21695137,-2.446063042
21.03649114,-4.825126648,-5.230710506,-2.328216314
21.04204614,-4.50269413,-5.368896008,-2.336591244
21.04760114,-4.327419758,-5.640480995,-2.350350142
21.05315614,-4.090530396,-6.044270039,-2.315055847
21.05871114,-3.818944931,-6.464808464,-2.295315027
21.06426614,-3.434896946,-6.828517437,-2.452643156
21.06982114,-2.958725214,-7.306483746,-2.59740901
21.07537614,-2.662613392,-7.960920811,-2.713460922
21.08093114,-2.387438774,-8.743971825,-2.809772015
21.08648614,-2.038684845,-9.63290596,-2.850450039
21.09204114,-1.499701619,-10.57507992,-2.739781857
21.09759614,-0.7615157962,-11.61296654,-2.259422779
21.10315114,-0.04187439755,-12.66640663,-1.103689432
21.10870614,0.4911268353,-13.80060482,0.3613162339
21.11426114,0.7824530005,-15.00718498,2.143370867
21.11981614,1.084546804,-16.11805344,4.390231133
21.12537114,1.37048912,-16.96630859,6.01376152
21.13092614,0.9349954724,-17.28156281,5.895915031
21.13648114,0.3846462369,-17.08894157,5.146961689
21.14203614,-0.5443671346,-16.54995728,3.932005882
21.14759114,-1.780858278,-15.86979771,2.515454769
21.15314614,-2.919841766,-15.19262886,1.229910851
21.15870114,-3.727419376,-14.55254936,0.1800599098
21.16425614,-4.383052826,-14.10927868,-0.4295116663
21.16981114,-4.977669239,-13.82273865,-0.784845829
21.17536614,-5.391627789,-13.60379505,-1.094716311
21.18092114,-5.659025669,-13.48594856,-1.379462242
21.18647614,-6.145366669,-13.47159195,-1.568495274
21.19203114,-6.868597507,-13.54517078,-1.553540111
21.19758614,-7.708477974,-13.77248859,-1.10608232
21.20314114,-8.492725372,-14.09671593,-0.3014956415
21.20869614,-9.436096191,-14.45922947,0.9308080077
21.21425114,-10.02353382,-14.82832146,2.359921217
21.21980614,-10.16112137,-15.06999683,3.664607763
21.22536114,-10.11326504,-15.1346035,4.743172646
21.23091614,-9.728618622,-15.04128361,5.432903767
21.23647114,-8.916254997,-14.82592869,5.750551224
21.24202614,-8.148757935,-14.44427395,5.776872158
21.24758114,-7.780860901,-14.08535004,5.649454117
21.25313614,-7.855636597,-13.83769321,5.559125423
21.25869114,-7.701299667,-13.79222965,5.392824173
21.26424614,-7.258627415,-13.85025597,5.089533806
21.26980114,-6.630511761,-13.96690559,4.572684288
21.27535614,-5.838487148,-14.07458305,4.045664787
21.28091114,-4.877768993,-14.1930275,3.653840065
21.28646614,-3.968496323,-14.26541042,3.456432343
