"Time (s)","Acceleration x (m/s^2)","Acceleration y (m/s^2)","Acceleration z (m/s^2)"
1.081546300E-2,-1.833500385E0,2.401197433E0,9.062815666E0
1.637046300E-2,-1.705484390E0,2.421536446E0,8.923434258E0
2.192546300E-2,-1.582253933E0,2.476571321E0,8.846863747E0
2.748046300E-2,-1.449452281E0,2.547757864E0,8.869595528E0
3.303546300E-2,-1.298106313E0,2.645265341E0,8.993423462E0
3.859046300E-2,-1.128215909E0,2.743969440E0,9.265607834E0
4.414546300E-2,-9.355936646E-1,2.810370207E0,9.650253296E0
4.970046300E-2,-7.944171429E-1,2.846262455E0,1.006540871E1
5.525546300E-2,-7.657032609E-1,2.829512835E0,1.037767220E1
6.081046300E-2,-8.201399446E-1,2.766103029E0,1.045723343E1
6.636546300E-2,-9.786644578E-1,2.678166628E0,1.036092186E1
7.192046300E-2,-1.255035520E0,2.577668190E0,1.017846966E1
7.747546300E-2,-1.565504193E0,2.471785784E0,9.979267120E0
8.303046300E-2,-1.788036704E0,2.372483730E0,9.777671814E0
8.858546300E-2,-1.844268084E0,2.271985054E0,9.540781975E0
9.414046300E-2,-1.841875196E0,2.208575249E0,9.274580956E0
9.969546300E-2,-1.830509305E0,2.160120726E0,8.995218277E0
1.052504630E-1,-1.853241086E0,2.140379906E0,8.770891190E0
1.108054630E-1,-1.858624935E0,2.148754835E0,8.649456024E0
1.163604630E-1,-1.856830359E0,2.133201361E0,8.672785759E0
1.219154630E-1,-1.899302959E0,2.128415823E0,8.813961983E0
1.274704630E-1,-1.991426587E0,2.135594130E0,9.050253868E0
1.330254630E-1,-2.024926186E0,2.135594130E0,9.330213547E0
1.385804630E-1,-1.953739643E0,2.131406784E0,9.543174744E0
1.441354630E-1,-1.801795483E0,2.150549412E0,9.586843491E0
1.496904630E-1,-1.722832322E0,2.155933142E0,9.514460564E0
1.552454630E-1,-1.680957913E0,2.175673962E0,9.412167549E0
1.608004630E-1,-1.704886079E0,2.189432621E0,9.312865257E0
1.663554630E-1,-1.773081541E0,2.204986095E0,9.232108116E0
1.719104630E-1,-1.855633974E0,2.187638044E0,9.229117393E0
1.774654630E-1,-1.902892232E0,2.169692039E0,9.288339615E0
1.830204630E-1,-1.916052699E0,2.116451740E0,9.352347374E0
1.885754630E-1,-1.881955028E0,2.071586132E0,9.383454323E0
1.941304630E-1,-1.826920033E0,2.056631088E0,9.373882294E0
1.996854630E-1,-1.792822361E0,2.045265198E0,9.337990761E0
2.052404630E-1,-1.810170293E0,2.070987940E0,9.270393372E0
2.107954630E-1,-1.847259045E0,2.125424623E0,9.206983566E0
2.163504630E-1,-1.884945989E0,2.177468538E0,9.163313866E0
2.219054630E-1,-1.863410592E0,2.213959217E0,9.164510727E0
2.274604630E-1,-1.773679733E0,2.234896421E0,9.147761345E0
2.330154630E-1,-1.648654819E0,2.241476536E0,9.141180992E0
2.385704630E-1,-1.576271892E0,2.252244234E0,9.128618240E0
2.441254630E-1,-1.579861164E0,2.266601324E0,9.118449211E0
2.496804630E-1,-1.633699656E0,2.270788670E0,9.131011009E0
2.552354630E-1,-1.697707653E0,2.278565407E0,9.174081802E0
2.607904630E-1,-1.738385677E0,2.273779631E0,9.208179474E0
2.663454630E-1,-1.713859200E0,2.267199516E0,9.205188751E0
2.719004630E-1,-1.658226132E0,2.261815548E0,9.171689034E0
2.774554630E-1,-1.601396561E0,2.282154560E0,9.103493690E0
2.830104630E-1,-1.553540111E0,2.343171597E0,9.029315948E0
2.885654630E-1,-1.464407444E0,2.416750908E0,8.946763992E0
2.941204630E-1,-1.380060434E0,2.506481647E0,8.849256516E0
2.996754630E-1,-1.345364571E0,2.570489645E0,8.749954224E0
3.052304630E-1,-1.311266780E0,2.611167669E0,8.693722725E0
3.107854630E-1,-1.215553880E0,2.647060156E0,8.681160927E0
3.163404630E-1,-1.046261668E0,2.699702263E0,8.706883430E0
3.218954630E-1,-8.045865893E-1,2.734996319E0,8.744570732E0
3.274504630E-1,-5.120640397E-1,2.758924484E0,8.758927345E0
3.330054630E-1,-2.303091735E-1,2.760120869E0,8.754141808E0
3.385604630E-1,-4.187439568E-3,2.772084951E0,8.718847275E0
3.441154630E-1,1.543370634E-1,2.775076151E0,8.698508263E0
3.496704630E-1,2.506481707E-1,2.768495798E0,8.719446182E0
3.552254630E-1,3.326023519E-1,2.710469961E0,8.816953659E0
3.607804630E-1,2.799602449E-1,2.569293261E0,9.110671997E0
3.663354630E-1,1.393819153E-1,2.498106956E0,9.149555206E0
3.718904630E-1,2.476571500E-1,2.284547329E0,8.621937752E0
3.774454630E-1,5.054838061E-1,2.050648928E0,8.093124390E0
3.830004630E-1,5.216353536E-1,1.987239242E0,8.569893837E0
3.885554630E-1,-5.024927482E-2,1.783251047E0,9.577870369E0
3.941104630E-1,-7.172485590E-1,1.375872970E0,9.783653259E0
3.996654630E-1,-1.368096352E0,9.649057388E-1,9.839884758E0
4.052204630E-1,-2.050648928E0,6.436693072E-1,1.003848934E1
4.107754630E-1,-2.654238462E0,4.372883439E-1,1.011984539E1
4.163304630E-1,-3.217748165E0,3.200400174E-1,1.027178955E1
4.218854630E-1,-3.655634880E0,1.441675574E-1,1.036331463E1
4.274404630E-1,-3.909872293E0,-4.785645381E-2,1.030229759E1
4.329954630E-1,-4.127619267E0,-2.057827413E-1,1.023828983E1
4.385504630E-1,-4.296911240E0,-3.254238665E-1,1.044467068E1
4.441054630E-1,-4.292723656E0,-4.360919297E-1,1.098903847E1
4.496604630E-1,-4.063013077E0,-6.029912829E-1,1.158903790E1
4.552154630E-1,-3.745365620E0,-8.123632669E-1,1.190668583E1
4.607704630E-1,-3.453441381E0,-1.028913736E0,1.186780167E1
4.663254630E-1,-3.267997503E0,-1.210170031E0,1.154178047E1
4.718804630E-1,-3.209971666E0,-1.343569875E0,1.102313614E1
4.774354630E-1,-3.208775282E0,-1.397408366E0,1.045783138E1
4.829904630E-1,-3.253042459E0,-1.372283816E0,9.974481583E0
4.885454630E-1,-3.357130051E0,-1.303490162E0,9.632308006E0
4.941004630E-1,-3.555136204E0,-1.190429211E0,9.429515839E0
4.996554630E-1,-3.802195072E0,-1.086341500E0,9.288339615E0
5.052104630E-1,-4.024129391E0,-1.014556766E0,9.031708717E0
5.107654630E-1,-4.146163464E0,-9.613165259E-1,8.687741280E0
5.163204630E-1,-4.120440483E0,-9.218349457E-1,8.326424599E0
5.218754630E-1,-3.937389612E0,-8.554341197E-1,8.042277336E0
5.274304630E-1,-3.622733593E0,-7.459624410E-1,7.999804497E0
5.329854630E-1,-3.238087177E0,-5.892325640E-1,8.178668022E0
5.385404630E-1,-2.803789854E0,-4.205385745E-1,8.479565620E0
5.440954630E-1,-2.378465652E0,-2.500499785E-1,8.653642654E0
5.496504630E-1,-1.984248161E0,-8.195417374E-2,8.659027100E0
5.552054630E-1,-1.724028707E0,6.161518395E-2,8.525029182E0
5.607604630E-1,-1.619342685E0,1.381855011E-1,8.303692818E0
5.663154630E-1,-1.571486235E0,1.962114573E-1,8.097909927E0
5.718704630E-1,-1.488933921E0,2.386840582E-1,8.069794655E0
5.774254630E-1,-1.411765337E0,3.332005441E-1,8.182256699E0
5.829804630E-1,-1.368694544E0,4.803591371E-1,8.398209572E0
5.885354630E-1,-1.472184181E0,5.742774606E-1,8.684151649E0
5.940904630E-1,-1.623530149E0,6.107679605E-1,8.968897820E0
5.996454630E-1,-1.730608940E0,5.521438122E-1,9.168698311E0
6.052004630E-1,-1.685743570E0,4.277170599E-1,9.332008362E0
6.107554630E-1,-1.021735311E0,1.357926875E-1,9.155537605E0
6.163104630E-1,-8.536394835E-1,-1.118644550E-1,9.021539688E0
6.218654630E-1,-1.119840980E0,-2.392822653E-1,9.184251785E0
6.274204630E-1,-1.383051515E0,-2.614158690E-1,9.412167549E0
6.329754630E-1,-1.691725612E0,7.178468257E-2,9.375677109E0
6.385304630E-1,-2.297109842E0,9.068797827E-1,9.229715347E0
6.440854630E-1,-2.347358942E0,1.173081279E0,9.223732948E0
6.496404630E-1,-1.986641049E0,8.231309652E-1,9.312865257E0
6.551954630E-1,-1.557129383E0,1.872383654E-1,9.632905960E0
6.607504630E-1,-1.101296663E0,-6.454638839E-1,1.047757244E1
6.663054630E-1,-9.326026440E-1,-1.505085468E0,1.154776192E1
6.718604630E-1,-1.109671474E0,-2.298306227E0,1.235175037E1
6.774154630E-1,-1.454836130E0,-2.855833769E0,1.250548935E1
6.829704630E-1,-1.824527264E0,-3.244069338E0,1.216451168E1
6.885254630E-1,-1.883749604E0,-3.541377544E0,1.187019539E1
6.940804630E-1,-1.475773335E0,-3.689134359E0,1.188694477E1
6.996354630E-1,-1.317248821E0,-3.417548895E0,1.129292679E1
7.051904630E-1,-1.194018483E0,-3.187838078E0,1.027777100E1
7.107454630E-1,-7.184450030E-1,-3.212962627E0,9.662218094E0
7.163004630E-1,-4.187439755E-2,-3.396611691E0,9.241081238E0
7.218554630E-1,6.891329288E-1,-3.571886063E0,8.908478737E0
7.274104630E-1,1.302891970E0,-3.626920938E0,8.884550095E0
7.329654630E-1,1.506880045E0,-3.370888948E0,9.238688469E0
7.385204630E-1,1.080359459E0,-2.842075109E0,9.634101868E0
7.440754630E-1,2.703889608E-1,-2.164308071E0,9.966106415E0
7.496304630E-1,-2.859423161E-1,-1.488933921E0,1.009292603E1
7.551854630E-1,-3.906283081E-1,-9.517452121E-1,9.735198975E0
7.607404630E-1,-1.537388563E-1,-5.682953596E-1,9.104690552E0
7.662954630E-1,3.427718580E-1,-3.391826153E-1,8.397012711E0
7.718504630E-1,9.571290612E-1,-1.896311939E-1,7.631907940E0
7.774054630E-1,1.427916884E0,-1.812563092E-1,6.905686378E0
7.829604630E-1,1.704886079E0,-2.446661144E-1,6.284748554E0
7.885154630E-1,1.989033818E0,-2.488535494E-1,5.715855122E0
7.940704630E-1,2.050648928E0,-2.117647976E-1,5.645864964E0
7.996254630E-1,1.800599098E0,-1.645065546E-1,5.912066460E0
8.051804630E-1,1.605584025E0,-2.333002090E-1,6.398407936E0
8.107354630E-1,1.677368641E0,-3.577269912E-1,6.870391846E0
8.162904630E-1,1.904088616E0,-4.528416991E-1,7.206583500E0
8.218454630E-1,2.094317913E0,-5.222335458E-1,7.425527096E0
8.274004630E-1,2.158924341E0,-6.161518097E-1,7.713861942E0
8.329554630E-1,2.217548370E0,-4.917250574E-1,7.943572998E0
8.385104630E-1,2.268994093E0,-3.870390654E-1,8.204988480E0
8.440654630E-1,2.213959217E0,-4.085744619E-1,8.691927910E0
8.496204630E-1,2.254039049E0,-5.676971674E-1,8.676973343E0
8.551754630E-1,2.434098721E0,-8.380861282E-1,8.716454506E0
8.607304630E-1,2.532204628E0,-1.051645517E0,8.980861664E0
8.662854630E-1,2.562713146E0,-1.259821177E0,9.233304024E0
8.718404630E-1,2.572284460E0,-1.141974568E0,9.795618057E0
8.773954630E-1,2.563909531E0,-1.016351461E0,9.899705887E0
8.829504630E-1,2.716451883E0,-1.082154036E0,1.046381378E1
8.885054630E-1,1.644467354E0,-1.375274777E0,1.068275642E1
8.940604630E-1,9.451649338E-2,-1.603789330E0,1.070369434E1
8.996154630E-1,-1.385444283E0,-1.850848317E0,1.043689442E1
9.051704630E-1,-2.030908108E0,-2.170888424E0,9.939187050E0
9.107254630E-1,-1.139581800E0,-2.581855536E0,9.094520569E0
9.162804630E-1,3.918247223E-1,-2.939582586E0,8.184051514E0
9.218354630E-1,1.361516118E0,-2.861815929E0,7.727620602E0
9.273904630E-1,1.695314884E0,-2.434697151E0,7.527221680E0
9.329454630E-1,1.733001828E0,-1.858624935E0,7.517052174E0
9.385004630E-1,1.945364833E0,-1.400997639E0,7.638488293E0
9.440554630E-1,2.263610125E0,-1.064806104E0,8.333602905E0
9.496104630E-1,2.800798893E0,-9.655039310E-1,9.157332420E0
9.551654630E-1,3.384647608E0,-9.577272534E-1,9.656833649E0
9.607204630E-1,4.104289055E0,-1.128215909E0,9.800403595E0
9.662754630E-1,4.858027935E0,-1.416550994E0,9.585049629E0
9.718304630E-1,5.544169903E0,-1.737787485E0,8.931808472E0
9.773854630E-1,6.046064377E0,-1.924427629E0,8.142177582E0
9.829404630E-1,6.564708710E0,-1.944766641E0,7.497311592E0
9.884954630E-1,7.289734364E0,-1.912463546E0,7.219145775E0
9.940504630E-1,7.942376614E0,-1.778465390E0,7.213163853E0
9.996054630E-1,8.469993591E0,-1.695314884E0,7.445267677E0
1.005160463E0,8.837890625E0,-1.590030670E0,7.662416458E0
1.010715463E0,9.196215630E0,-1.500299811E0,7.763513088E0
1.016270463E0,9.601201057E0,-1.430309772E0,7.704290867E0
1.021825463E0,1.006062317E1,-1.356730461E0,7.459624767E0
1.027380463E0,1.041595650E1,-1.072582722E0,7.172485828E0
1.032935463E0,9.960722923E0,-1.007378340E0,6.799205780E0
1.038490463E0,9.386445045E0,-8.739784956E-1,6.577271461E0
1.044045463E0,8.919246674E0,-6.747759581E-1,6.416952133E0
1.049600463E0,8.473583221E0,-4.588237405E-1,6.271588326E0
1.055155463E0,8.126026154E0,-6.879365444E-2,6.218945980E0
1.060710463E0,8.076972961E0,5.252245665E-1,6.238088608E0
1.066265463E0,8.003393173E0,8.464609981E-1,6.455237389E0
1.071820463E0,8.023732185E0,9.308080077E-1,6.932007313E0
1.077375463E0,7.962715626E0,8.584251404E-1,7.532007694E0
1.082930463E0,7.806583881E0,7.130611539E-1,7.901100159E0
1.088485463E0,7.328019142E0,5.401797295E-1,7.973483086E0
1.094040463E0,6.836892605E0,3.194418252E-1,8.021339417E0
1.099595463E0,6.391229153E0,5.563312769E-2,8.301300049E0
1.105150463E0,5.913861275E0,-2.602194548E-1,8.874979019E0
1.110705463E0,5.404788017E0,-5.922235847E-1,9.730413437E0
1.116260463E0,4.913661480E0,-9.990034699E-1,1.035733318E1
1.121815463E0,4.633102894E0,-1.441675663E0,1.058704376E1
1.127370463E0,4.857429981E0,-1.758126378E0,1.094417286E1
1.132925463E0,5.257031441E0,-1.758724689E0,1.163091278E1
1.138480463E0,5.213960648E0,-1.469193101E0,1.225125217E1
1.144035463E0,5.008177757E0,-1.043270707E0,1.244746304E1
1.149590463E0,5.148756027E0,-5.072783828E-1,1.182233810E1
1.155145463E0,5.840281963E0,1.220339537E-1,1.053440189E1
1.160700463E0,6.389434814E0,6.664010882E-1,9.250652313E0
1.166255463E0,7.159325123E0,1.159322619E0,7.948358536E0
1.171810463E0,8.048856735E0,1.460818172E0,6.783652306E0
1.177365463E0,8.662615776E0,1.625324726E0,6.140581131E0
1.182920463E0,9.113663673E0,1.858026743E0,5.893522263E0
1.188475463E0,9.448060036E0,1.973480463E0,6.332006931E0
1.194030463E0,9.750752449E0,2.069193363E0,7.258627415E0
1.199585463E0,9.537193298E0,2.065006018E0,8.306683540E0
1.205140463E0,8.444271088E0,1.685743570E0,9.140582085E0
1.210695463E0,7.342376232E0,8.338986635E-1,9.354740143E0
1.216250463E0,6.131608009E0,6.699903309E-2,9.381061554E0
1.221805463E0,4.848456860E0,-3.984049559E-1,9.402596474E0
1.227360463E0,3.996612072E0,-8.063812256E-1,9.352347374E0
1.232915463E0,3.854238987E0,-1.359123230E0,8.822935104E0
1.238470463E0,3.620340586E0,-1.834696770E0,8.182855606E0
1.244025463E0,3.131606579E0,-1.922633052E0,7.703094482E0
1.249580463E0,2.701496840E0,-2.015354872E0,7.386643410E0
1.255135463E0,2.605185747E0,-2.098505497E0,7.601997375E0
1.260690463E0,3.087339401E0,-2.038684845E0,8.228319168E0
1.266245463E0,3.570689678E0,-1.849651933E0,9.033503532E0
1.271800463E0,3.740580082E0,-1.573879123E0,9.608977318E0
1.277355463E0,3.763910055E0,-1.352542996E0,9.720243454E0
1.282910463E0,3.844069481E0,-1.213759303E0,9.508479118E0
1.288465463E0,3.987638950E0,-1.122832060E0,9.044271469E0
1.294020463E0,4.107878208E0,-1.124626637E0,8.503493309E0
1.299575463E0,3.616153240E0,-1.294517040E0,7.837690353E0
1.305130463E0,2.940180779E0,-1.565504193E0,7.006783009E0
1.310685463E0,2.350948334E0,-1.799402595E0,6.125626087E0
1.316240463E0,2.398206472E0,-2.094916344E0,5.361119270E0
1.321795463E0,2.526820660E0,-2.437688112E0,5.264209747E0
1.327350463E0,2.735594511E0,-2.726621389E0,6.507281303E0
1.332905463E0,2.697309256E0,-2.657827854E0,8.471788406E0
1.338460463E0,2.140978098E0,-2.356930256E0,1.038245773E1
1.344015463E0,1.406381488E0,-2.213959217E0,1.178943729E1
1.349570463E0,7.447660565E-1,-2.290529490E0,1.243789196E1
1.355125463E0,5.641079545E-1,-2.454437733E0,1.237627697E1
1.360680463E0,5.641079545E-1,-2.472383976E0,1.205384445E1
1.366235463E0,8.602197170E-1,-2.333600283E0,1.138744259E1
1.371790463E0,1.217946768E0,-2.142174482E0,1.033400249E1
1.377345463E0,1.532004714E0,-2.060220242E0,8.939585686E0
1.382900463E0,1.737787485E0,-2.063211441E0,7.667799950E0
1.388455463E0,2.017747641E0,-2.291127682E0,7.058228493E0
1.394010463E0,2.190629244E0,-2.456830740E0,6.977470875E0
1.399565463E0,2.276770830E0,-2.563311338E0,7.701299667E0
1.405120463E0,2.522035122E0,-2.854039192E0,8.714659691E0
1.410675463E0,2.220539331E0,-2.991626501E0,1.002233791E1
1.416230463E0,1.868196249E0,-3.048455954E0,1.146401310E1
1.421785463E0,1.714457393E0,-2.422134638E0,1.099920750E1
1.427340463E0,1.794018745E0,-2.449054003E0,1.139581776E1
1.432895463E0,1.475175142E0,-3.104089260E0,1.206580830E1
1.438450463E0,5.563312769E-1,-3.477967739E0,1.188814068E1
1.444005463E0,1.148554832E-1,-3.433700562E0,1.102433205E1
1.449560463E0,-2.937189937E-1,-3.431905985E0,1.067378330E1
1.455115463E0,-8.949156404E-1,-3.444468260E0,1.072881889E1
1.460670463E0,-8.697910309E-1,-3.316452265E0,1.052662468E1
1.466225463E0,-7.417750359E-1,-2.911466837E0,9.821340561E0
1.471780463E0,-5.790630579E-1,-2.687737942E0,1.000798035E1
1.477335463E0,-8.003991842E-1,-2.553141832E0,1.029751205E1
1.482890463E0,-7.830511928E-1,-2.531008244E0,1.017488003E1
1.488445463E0,-9.487541914E-1,-2.550150633E0,1.035434151E1
1.494000463E0,-1.521237016E0,-2.522633314E0,1.048235798E1
1.499555463E0,-2.303689957E0,-2.377269268E0,1.039741230E1
1.505110463E0,-3.345165968E0,-2.499901533E0,1.051226807E1
1.510665463E0,-4.453640938E0,-3.138785124E0,1.046560764E1
1.516220463E0,-5.499304771E0,-3.763910055E0,1.040638542E1
1.521775463E0,-6.120840549E0,-4.027718544E0,1.042971611E1
1.527330463E0,-6.192625046E0,-3.848257065E0,9.979865074E0
1.532885463E0,-5.735595703E0,-3.399602890E0,9.409774780E0
1.538440463E0,-5.171487808E0,-3.021536827E0,8.934800148E0
1.543995463E0,-4.050450325E0,-2.700898647E0,8.435895920E0
1.549550463E0,-2.725425005E0,-2.263610125E0,7.820342541E0
1.555105463E0,-2.266003132E0,-1.830509305E0,7.422535896E0
1.560660463E0,-5.982056856E-1,-1.573879123E0,6.602993965E0
1.566215463E0,7.064808607E-1,-1.387238979E0,4.977669239E0
1.571770463E0,1.892722726E0,-1.385444283E0,3.656233072E0
1.577325463E0,2.728415966E0,-1.451246977E0,3.209971666E0
1.582880463E0,2.963510752E0,-1.534995675E0,3.999603033E0
1.588435463E0,2.271985054E0,-1.932802439E0,5.702096462E0
1.593990463E0,8.309076428E-1,-2.200200319E0,9.141778946E0
1.599545463E0,-4.725824594E-1,-2.869592667E0,1.007198906E1
1.605100463E0,-7.351947427E-1,-4.042075634E0,1.023589706E1
1.610655463E0,-1.534397483E0,-4.450650215E0,1.091366386E1
1.616210463E0,-2.703889608E0,-4.072584152E0,1.116909790E1
1.621765463E0,-2.574079037E0,-3.572484255E0,1.050269699E1
1.627320463E0,-2.429313183E0,-3.445664644E0,9.933204651E0
1.632875463E0,-2.815155745E0,-3.772284985E0,9.842875481E0
1.638430463E0,-3.193820000E0,-3.867997885E0,9.779465675E0
1.643985463E0,-3.559323788E0,-3.762115479E0,9.544969559E0
1.649540463E0,-3.553939819E0,-3.424727440E0,9.525827408E0
1.655095463E0,-3.433102369E0,-3.160320520E0,9.452845573E0
1.660650463E0,-3.352344513E0,-2.904886723E0,9.550353050E0
1.666205463E0,-3.266801119E0,-2.678166628E0,9.406186104E0
1.671760463E0,-3.074777126E0,-2.490330219E0,8.920442581E0
1.677315463E0,-2.621337175E0,-2.559721947E0,8.516056061E0
1.682870463E0,-6.855437160E-1,-4.023531437E0,9.135796547E0
1.688425463E0,-1.507478207E-1,-5.041677475E0,9.878767967E0
1.693980463E0,-1.039083242E0,-4.500301361E0,8.761918068E0
1.699535463E0,-2.632703066E0,-3.349951744E0,7.414160728E0
1.705090463E0,-4.693521500E0,-2.288136721E0,6.203990936E0
1.710645463E0,-6.059823513E0,-1.855035782E0,5.574678421E0
1.716200463E0,-6.369693756E0,-2.018944025E0,5.654838085E0
1.721755463E0,-5.306084156E0,-2.632104874E0,6.770491600E0
1.727310463E0,-4.202992916E0,-3.219542980E0,9.409176826E0
1.732865463E0,-3.623331785E0,-3.793222189E0,1.067737293E1
1.738420463E0,-3.783650875E0,-3.908077478E0,9.604191780E0
1.743975463E0,-3.905086517E0,-3.901497364E0,8.590232849E0
1.749530463E0,-3.441477060E0,-3.986442566E0,8.527421951E0
1.755085463E0,-2.717050076E0,-3.930809498E0,8.719446182E0
1.760640463E0,-2.355733871E0,-3.746562004E0,8.903095245E0
1.766195463E0,-2.634497643E0,-3.432504177E0,9.305686951E0
1.771750463E0,-3.244667530E0,-3.123830080E0,9.302098274E0
1.777305463E0,-3.071187973E0,-3.081357241E0,9.577870369E0
1.782860463E0,-2.665006161E0,-3.542573929E0,9.855438232E0
1.788415463E0,-3.038884640E0,-4.597808838E0,9.723235130E0
1.793970463E0,-3.432504177E0,-5.560321808E0,8.945567131E0
1.799525463E0,-3.924229145E0,-6.143572330E0,8.234300613E0
1.805080463E0,-4.260420799E0,-6.555137634E0,7.347161770E0
1.810635463E0,-3.834498405E0,-6.656832695E0,6.911668301E0
1.816190463E0,-3.178864956E0,-6.626922131E0,7.402794838E0
1.821745463E0,-2.199003935E0,-6.174080849E0,7.703692436E0
1.827300463E0,-2.039881229E0,-5.844469070E0,7.701299667E0
1.832855463E0,-2.444268227E0,-5.717051506E0,7.736593723E0
1.838410463E0,-2.865405083E0,-5.620740414E0,7.730611801E0
1.843965463E0,-3.083152056E0,-5.563312531E0,7.630711555E0
1.849520463E0,-3.154338360E0,-5.650650501E0,7.537989616E0
1.855075463E0,-3.132802963E0,-5.872584820E0,7.547560692E0
1.860630463E0,-3.226721287E0,-6.148357868E0,7.573882103E0
1.866185463E0,-3.154338360E0,-6.320042610E0,7.599604607E0
1.871740463E0,-2.964707375E0,-6.368497372E0,7.575676441E0
1.877295463E0,-2.812164783E0,-6.329614162E0,7.566703320E0
1.882850463E0,-2.819941521E0,-6.147759438E0,7.768298626E0
1.888405463E0,-3.066402197E0,-5.870192051E0,7.959724426E0
1.893960463E0,-3.433102369E0,-5.423332691E0,8.164310455E0
1.899515463E0,-3.627519131E0,-4.775475979E0,8.486743927E0
1.905070463E0,-4.299902439E0,-4.071387768E0,9.004789352E0
1.910625463E0,-6.351747513E0,-3.415754318E0,1.026341438E1
1.916180463E0,-5.777470112E0,-2.087139606E0,1.046261692E1
1.921735463E0,-3.216551781E0,-1.469791293E0,8.516654015E0
1.927290463E0,-1.220339537E0,-1.624726534E0,6.914061069E0
1.932845463E0,-1.074975610E0,-1.865803480E0,6.808178425E0
1.938400463E0,-2.110469580E0,-2.359323025E0,7.215556622E0
1.943955463E0,-2.641077995E0,-3.479762316E0,7.470990658E0
1.949510463E0,-2.467000246E0,-4.620540619E0,7.681559086E0
1.955065463E0,-1.886142492E0,-5.560919762E0,7.733603001E0
1.960620463E0,-1.384247899E0,-6.206383705E0,7.771289825E0
1.966175463E0,-1.492523074E0,-6.282954216E0,7.666005611E0
1.971730463E0,-2.484946251E0,-5.330610752E0,8.127820015E0
1.977285463E0,-3.371487141E0,-4.252045631E0,9.025727272E0
1.982840463E0,-3.845864296E0,-3.914657831E0,9.376275063E0
1.988395463E0,-3.914657831E0,-4.089334011E0,9.330811501E0
1.993950463E0,-3.422932863E0,-4.468596458E0,8.909674644E0
1.999505463E0,-3.081357241E0,-4.840680122E0,8.054839134E0
2.005060463E0,-2.384447813E0,-5.341378212E0,8.605786324E0
2.010615463E0,-2.048256159E0,-5.959922791E0,8.893523216E0
2.016170463E0,-2.002792597E0,-5.985047817E0,7.846065521E0
2.021725463E0,-2.435295343E0,-5.263611794E0,6.279963017E0
2.027280463E0,-3.614358664E0,-4.395615101E0,4.887340069E0
2.032835463E0,-4.846064091E0,-3.793820381E0,4.353740692E0
2.038390463E0,-5.462814331E0,-3.687339783E0,5.031507969E0
2.043945463E0,-5.560321808E0,-3.987040758E0,6.437889099E0
2.049500463E0,-5.629713535E0,-4.274777889E0,7.892127514E0
2.055055463E0,-5.773283005E0,-4.269991875E0,8.849256516E0
2.060610463E0,-5.767300606E0,-3.777668715E0,9.425328255E0
2.066165463E0,-5.361717224E0,-3.073580742E0,9.564111710E0
2.071720463E0,-4.238286972E0,-2.337787628E0,9.232108116E0
2.077275463E0,-3.135794163E0,-1.688734531E0,8.858827591E0
2.082830463E0,-1.811366796E0,-1.148554921E0,8.517251968E0
2.088385463E0,-9.619147182E-1,-1.052243710E0,7.867600918E0
2.093940463E0,-9.768698215E-1,-1.250848055E0,7.514061451E0
2.099495463E0,-2.029113531E0,-1.655235052E0,7.390830994E0
2.105050463E0,-3.967299938E0,-2.207977057E0,7.759325504E0
2.110605463E0,-5.365306377E0,-2.704487801E0,8.166105270E0
2.116160463E0,-6.032904148E0,-3.034697294E0,7.906484127E0
2.121715463E0,-6.698707104E0,-3.597608805E0,8.340183258E0
2.127270463E0,-6.937989235E0,-3.907479286E0,8.008777618E0
2.132825463E0,-6.832107067E0,-3.987040758E0,7.353144169E0
2.138380463E0,-6.603592396E0,-4.007977962E0,7.060023308E0
2.143935463E0,-6.509075642E0,-4.096512318E0,7.267002583E0
2.149490463E0,-6.379863262E0,-4.314259052E0,6.984649181E0
2.155045463E0,-5.935396671E0,-4.096512318E0,7.748558044E0
2.160600463E0,-6.112465382E0,-3.947559118E0,7.941778183E0
2.166155463E0,-6.397809505E0,-3.722035646E0,7.961519241E0
2.171710463E0,-6.714260101E0,-3.574877024E0,8.195417404E0
2.177265463E0,-6.728617191E0,-3.645465374E0,6.616752625E0
2.182820463E0,-6.220142365E0,-3.339184046E0,7.828119278E0
2.188375463E0,-5.899504185E0,-2.761317253E0,9.426525116E0
2.193930463E0,-6.055635929E0,-2.266601324E0,9.867402077E0
2.199485463E0,-5.976074696E0,-2.080559254E0,9.206983566E0
2.205040463E0,-5.850451469E0,-2.257628202E0,7.216753006E0
2.210595463E0,-6.093921185E0,-2.528615236E0,5.921039581E0
2.216150463E0,-5.889334679E0,-2.773281336E0,6.248258114E0
2.221705463E0,-5.620740414E0,-3.154338360E0,6.881159782E0
2.227260463E0,-5.472385406E0,-3.605983734E0,7.590033531E0
2.232815463E0,-6.120840549E0,-3.474976778E0,6.940382004E0
2.238370463E0,-6.280561447E0,-3.803391695E0,7.412366390E0
2.243925463E0,-6.618547440E0,-4.039084435E0,7.400402069E0
2.249480463E0,-7.091728210E0,-4.091128349E0,7.416553974E0
2.255035463E0,-7.624131203E0,-4.237689018E0,6.819544315E0
2.260590463E0,-8.410771370E0,-4.340580463E0,5.818148136E0
2.266145463E0,-8.804988861E0,-4.451248169E0,5.067998409E0
2.271700463E0,-8.905488014E0,-4.759324074E0,5.013561726E0
2.277255463E0,-8.851649284E0,-4.949553490E0,4.900500774E0
2.282810463E0,-8.384450912E0,-4.974080086E0,4.804787636E0
2.288365463E0,-7.719843864E0,-5.179862976E0,4.257429600E0
2.293920463E0,-6.844669342E0,-5.592026711E0,3.367897987E0
2.299475463E0,-5.721837044E0,-5.660820007E0,4.158725739E0
2.305030463E0,-5.318048477E0,-5.330610752E0,5.082355499E0
2.310585463E0,-4.931009293E0,-4.772484779E0,5.757729530E0
2.316140463E0,-4.784449100E0,-4.342973232E0,5.930012703E0
2.321695463E0,-5.045266628E0,-4.111467361E0,5.843272686E0
2.327250463E0,-4.756931305E0,-3.680161238E0,6.445665836E0
2.332805463E0,-5.015356064E0,-3.027518749E0,7.390232563E0
2.338360463E0,-5.290530682E0,-2.516052961E0,7.331010342E0
2.343915463E0,-5.742774487E0,-2.795415163E0,6.135197163E0
2.349470463E0,-6.136991978E0,-3.363112211E0,5.115854740E0
2.355025463E0,-6.267400742E0,-3.890131474E0,4.821537495E0
2.360580463E0,-6.306283951E0,-3.735794306E0,5.426921844E0
2.366135463E0,-6.455835342E0,-3.474976778E0,6.105287075E0
2.371690463E0,-6.772884369E0,-3.553939819E0,5.873183250E0
2.377245463E0,-6.895516872E0,-3.521038532E0,5.655436516E0
2.382800463E0,-7.750950813E0,-3.109472990E0,5.377869129E0
2.388355463E0,-8.450851440E0,-3.779463291E0,5.694319725E0
2.393910463E0,-9.090332985E0,-4.318446636E0,4.632504463E0
2.399465463E0,-8.941379547E0,-5.014159679E0,4.104289055E0
2.405020463E0,-8.641080856E0,-5.040481091E0,3.409772158E0
2.410575463E0,-8.355138779E0,-4.802993298E0,2.089532375E0
2.416130463E0,-8.097311974E0,-5.364708424E0,1.886740685E0
2.421685463E0,-7.362715244E0,-5.522036552E0,2.894717216E0
2.427240463E0,-6.046662807E0,-4.670191765E0,2.218146563E0
2.432795463E0,-5.125426292E0,-4.338187218E0,2.991028309E0
2.438350463E0,-4.749752998E0,-4.426123619E0,3.089732170E0
2.443905463E0,-5.045864582E0,-4.352544308E0,4.057629108E0
2.449460463E0,-5.050650597E0,-3.958925009E0,4.618745804E0
2.455015463E0,-4.950749874E0,-3.552145243E0,5.559723377E0
2.460570463E0,-4.800600529E0,-2.914458036E0,5.717051506E0
2.466125463E0,-4.106083870E0,-2.713460922E0,5.615954876E0
2.471680463E0,-3.576073408E0,-2.790629387E0,6.734001160E0
2.477235463E0,-4.477569580E0,-1.868794441E0,6.481558323E0
2.482790463E0,-5.826523304E0,-3.942175210E-1,5.149354458E0
2.488345463E0,-5.692524910E0,-1.415952802E0,5.411368370E0
2.493900463E0,-6.589235306E0,-2.800200701E0,4.433301926E0
2.499455463E0,-8.510073662E0,-2.997608662E0,3.477369547E0
2.505010463E0,-8.927022934E0,-3.221935749E0,2.309073925E0
2.510565463E0,-9.519247055E0,-3.973282099E0,-6.442674994E-1
2.516120463E0,-1.033519936E1,-5.127819061E0,-2.693720102E0
2.521675463E0,-1.066899776E1,-6.459424496E0,-3.701098442E0
2.527230463E0,-1.068694401E1,-7.073781967E0,-3.845266104E0
2.532785463E0,-9.375677109E0,-7.007380962E0,-6.432505608E0
2.538340463E0,-6.719644070E0,-8.418548584E0,-7.676773071E0
2.543895463E0,-7.756932735E0,-8.450851440E0,-2.239083767E0
2.549450463E0,-8.135597229E0,-8.193622589E0,1.667797327E0
2.555005463E0,-8.072187424E0,-7.852645874E0,3.128615618E0
2.560560463E0,-6.958926678E0,-8.406583786E0,3.245265722E0
2.566115463E0,-7.523034573E0,-6.416353703E0,8.015955687E-1
2.571670463E0,-7.908876896E0,-4.582853794E0,-2.410768867E-1
2.577225463E0,-7.338188648E0,-4.590630054E0,-6.053841114E-1
2.582780463E0,-7.907082558E0,-5.879165173E0,1.150947690E0
2.588335463E0,-8.895915985E0,-6.798008919E0,2.620140791E0
2.593890463E0,-8.650053978E0,-7.158727169E0,2.050050735E0
2.599445463E0,-6.906284332E0,-6.686742783E0,1.163509965E0
2.605000463E0,-6.396613121E0,-6.007779598E0,4.001995921E-1
2.610555463E0,-7.079763889E0,-5.101497650E0,-5.108676553E-1
2.616110463E0,-7.034898758E0,-4.679762840E0,-5.599204898E-1
2.621665463E0,-6.893722057E0,-6.383452415E0,1.722832322E-1
2.627220463E0,-6.523432732E0,-7.356733322E0,8.111668825E-1
2.632775463E0,-5.923432350E0,-7.534998417E0,5.922235921E-2
2.638330463E0,-6.347560406E0,-8.268997192E0,-5.575276613E-1
2.643885463E0,-7.377072334E0,-8.531609535E0,-9.625129104E-1
2.649440463E0,-8.324629784E0,-8.346165657E0,-1.808973908E0
2.654995463E0,-8.381459236E0,-8.022536278E0,-2.159522533E0
2.660550463E0,-8.422736168E0,-8.337192535E0,-2.148754835E0
2.666105463E0,-8.501100540E0,-9.597013474E0,-1.045065284E0
2.671660463E0,-8.366504669E0,-9.515059471E0,8.374879137E-3
2.677215463E0,-7.989634991E0,-9.230313301E0,1.902294010E-1
2.682770463E0,-7.961519241E0,-9.439684868E0,1.603191197E-1
2.688325463E0,-7.398607731E0,-9.274580956E0,-6.669993401E-1
2.693880463E0,-6.440880299E0,-8.264211655E0,-3.583251834E-1
2.699435463E0,-7.696514130E0,-7.610372543E0,-4.576273263E-1
2.704990463E0,-8.252246857E0,-8.605786324E0,6.939185411E-2
2.710545463E0,-8.222336769E0,-9.703494072E0,3.314059377E-1
2.716100463E0,-7.024729252E0,-9.351150513E0,-1.728814393E-1
2.721655463E0,-6.593422890E0,-8.259425163E0,-4.097708762E-1
2.727210463E0,-5.704489231E0,-7.371688366E0,4.247260094E-2
2.732765463E0,-4.460819721E0,-5.731408596E0,8.745766878E-1
2.738320463E0,-6.650252342E0,-6.626922131E0,4.366901144E-2
2.743875463E0,-6.580860615E0,-7.140780926E0,1.848455518E-1
2.749430463E0,-6.472585201E0,-6.658627033E0,1.860419661E-1
2.754985463E0,-6.334998131E0,-6.481558323E0,4.965107143E-2
2.760540463E0,-6.272186279E0,-6.572485447E0,5.922235921E-2
2.766095463E0,-6.262615204E0,-6.589235306E0,-2.303091735E-1
2.771650463E0,-6.884150982E0,-7.010970116E0,-3.433700502E-1
2.777205463E0,-7.253243446E0,-7.593622684E0,-6.394818425E-1
2.782760463E0,-7.019345284E0,-7.995018482E0,-1.523031592E0
2.788315463E0,-6.923632145E0,-7.983054638E0,-1.363908947E-1
2.793870463E0,-7.277770042E0,-7.722835064E0,-7.716853172E-2
2.799425463E0,-7.595417500E0,-7.562515736E0,-1.523629785E0
2.804980463E0,-9.041878700E0,-8.989834785E0,4.713860750E-1
2.810535463E0,-8.150551796E0,-9.158528328E0,5.934200287E-1
2.816090463E0,-6.972086906E0,-7.822137356E0,-7.076773047E-1
2.821645463E0,-6.483951092E0,-7.360920429E0,-1.908276081E-1
2.827200463E0,-6.349354744E0,-7.421937466E0,5.024927482E-2
2.832755463E0,-5.935396671E0,-7.134799004E0,-3.828516230E-2
2.838310463E0,-5.078167915E0,-6.012565136E0,5.210371017E-1
2.843865463E0,-6.149554253E0,-6.913462639E0,-5.126622319E-1
2.849420463E0,-6.359524250E0,-7.326822758E0,-7.507480979E-1
2.854975463E0,-6.251847267E0,-7.194021225E0,-1.668993831E-1
2.860530463E0,-5.811567783E0,-6.984649181E0,-5.234299302E-1
2.866085463E0,-5.828317642E0,-6.966702938E0,-7.609176040E-1
2.871640463E0,-5.811567783E0,-6.967301369E0,-5.222335458E-1
2.877195463E0,-5.764907837E0,-6.841079712E0,-5.347958803E-1
2.882750463E0,-6.254240036E0,-7.147361279E0,-5.198407173E-1
2.888305463E0,-6.601199627E0,-6.939784050E0,-3.343969584E-1
2.893860463E0,-7.158727169E0,-7.411767960E0,4.516452849E-1
2.899415463E0,-7.036095142E0,-6.914061069E0,-3.086741269E-1
2.904970463E0,-6.647261143E0,-6.917650223E0,-7.178468257E-2
2.910525463E0,-7.000202656E0,-6.924230576E0,2.931207716E-1
2.916080463E0,-6.710670948E0,-6.778268337E0,9.523434043E-1
2.921635463E0,-5.563910961E0,-5.720042706E0,4.618147612E-1
2.927190463E0,-6.096911907E0,-5.388038158E0,4.935196638E-1
2.932745463E0,-6.422934055E0,-5.602794170E0,7.106683254E-1
2.938300463E0,-6.548557281E0,-5.558526993E0,9.649057388E-1
2.943855463E0,-6.543771744E0,-6.059225082E0,1.352542996E0
2.949410463E0,-6.716054916E0,-6.756134510E0,6.400800347E-1
2.954965463E0,-6.231508255E0,-7.282555580E0,2.003988922E-1
2.960520463E0,-6.156134605E0,-8.015357971E0,-4.432703853E-1
2.966075463E0,-6.533602238E0,-9.079565048E0,-1.263410330E0
2.971630463E0,-5.823532104E0,-9.183054924E0,-1.352542996E0
2.977185463E0,-6.390032768E0,-1.027238750E1,-1.569093466E0
2.982740463E0,-6.143572330E0,-1.021496010E1,-1.782652855E0
2.988295463E0,-6.574878216E0,-9.832706451E0,-1.097707391E0
2.993850463E0,-6.880561352E0,-9.732208252E0,-6.861419082E-1
2.999405463E0,-6.920042992E0,-9.464810371E0,-7.579265833E-1
3.004960463E0,-5.315655708E0,-9.256634712E0,6.448656917E-1
3.010515463E0,-5.772684574E0,-9.100502968E0,6.999006271E-1
3.016070463E0,-6.517450809E0,-9.776474953E0,-3.050848842E-2
3.021625463E0,-7.621140003E0,-1.019521904E1,-8.081758618E-1
3.027180463E0,-8.528019905E0,-1.033460140E1,-1.446461320E0
3.032735463E0,-8.493324280E0,-1.062712383E1,-1.731805444E0
3.038291137E0,-9.268598557E0,-1.114337540E1,-2.343171597E0
3.043846137E0,-9.446265221E0,-1.078684425E1,-1.745564103E0
3.049401137E0,-8.788239479E0,-1.066481018E1,-1.333400369E0
3.054956137E0,-7.137789726E0,-1.051705360E1,-1.630708575E0
3.060511137E0,-4.146163464E0,-9.282357216E0,-1.208973646E0
3.066066137E0,9.200403094E-1,-5.364109993E0,-2.261217386E-1
3.071621137E0,-1.104885817E0,-5.425127029E0,-1.459621787E-1
3.077176137E0,-4.223331928E0,-5.506483078E0,4.319044948E-1
3.082731137E0,-5.410171986E0,-6.074180126E0,2.787638307E-1
3.088286137E0,-5.044070244E0,-7.250850677E0,-4.977070987E-1
3.093841137E0,-4.598406792E0,-8.303094864E0,-4.025924206E-1
3.099396137E0,-4.418945312E0,-8.596813202E0,-4.307080805E-1
3.104951137E0,-4.094717979E0,-8.248658180E0,-2.769692242E-1
3.110506137E0,-4.088137627E0,-7.998608112E0,5.503492057E-2
3.116061137E0,-4.391427994E0,-7.414759159E0,-1.265803218E0
3.121616137E0,-5.035695076E0,-7.290332317E0,-2.117049932E0
3.127171137E0,-5.103292465E0,-7.429116249E0,-1.255035520E0
3.132726137E0,-5.362913609E0,-7.544569969E0,-1.037288666E0
3.138281137E0,-5.818746567E0,-7.551748276E0,-5.814558864E-1
3.143836137E0,-5.746363640E0,-7.542775154E0,1.788634956E-1
3.149391137E0,-5.870790482E0,-7.262814999E0,2.243271172E-1
3.154946137E0,-5.812764645E0,-7.033702374E0,2.219343036E-1
3.160501137E0,-5.971288681E0,-6.767500877E0,1.812563092E-1
3.166056137E0,-6.466004848E0,-6.534200668E0,1.399801224E-1
3.171611137E0,-6.846463680E0,-6.357729912E0,-1.040877849E-1
3.177166137E0,-7.016952515E0,-6.285944939E0,-6.364908218E-1
3.182721137E0,-7.045666218E0,-6.315855503E0,-1.231107235E0
3.188276137E0,-6.805187702E0,-6.362515450E0,-1.587039590E0
3.193831137E0,-6.682555676E0,-6.467799664E0,-2.185245275E0
3.199386137E0,-6.074180126E0,-6.313462734E0,-2.788834810E0
3.204941137E0,-5.253442287E0,-6.111268997E0,-2.800798893E0
3.210496137E0,-4.534399033E0,-6.182455540E0,-2.117049932E0
3.216051137E0,-4.397409916E0,-6.665207386E0,-2.306082726E0
3.221606137E0,-4.800002098E0,-7.307680130E0,-2.632703066E0
3.227161137E0,-5.170889854E0,-7.927421570E0,-2.846262455E0
3.232716137E0,-5.515456200E0,-8.347361565E0,-3.240479946E0
3.238271137E0,-5.840879917E0,-8.519046783E0,-3.450450182E0
3.243826137E0,-6.004788399E0,-8.560921669E0,-3.486342669E0
3.249381137E0,-6.062216282E0,-8.422137260E0,-3.362514019E0
3.254936137E0,-6.123831272E0,-8.224729538E0,-3.311666489E0
3.260491137E0,-6.109474182E0,-8.064410210E0,-3.409772158E0
3.266046137E0,-5.974878311E0,-7.931010723E0,-3.550948858E0
3.271601137E0,-6.078367710E0,-7.747959614E0,-3.582055569E0
3.277156137E0,-6.285346985E0,-7.390830994E0,-3.492324591E0
3.282711137E0,-6.434898376E0,-6.946962357E0,-3.376272678E0
3.288266137E0,-6.391229153E0,-6.684350014E0,-3.129213810E0
3.293821137E0,-6.557530403E0,-6.464210510E0,-2.889333248E0
3.299376137E0,-6.573681831E0,-6.194419384E0,-2.824128866E0
3.304931137E0,-6.479763508E0,-6.052046776E0,-2.909672260E0
3.310486137E0,-6.340980053E0,-5.978467464E0,-2.962912560E0
3.316041137E0,-6.284150600E0,-6.004190445E0,-2.965305567E0
3.321596137E0,-6.300900459E0,-6.129215240E0,-3.006581545E0
3.327151137E0,-6.351747513E0,-6.314659119E0,-3.077768087E0
3.332706137E0,-6.457630157E0,-6.577271461E0,-3.211168051E0
3.338261137E0,-6.349953175E0,-6.796214581E0,-3.442673683E0
3.343816137E0,-6.122036934E0,-6.887141705E0,-3.582653761E0
3.349371137E0,-6.154938221E0,-6.936194420E0,-3.552145243E0
3.354926137E0,-6.220142365E0,-6.985247612E0,-3.565305710E0
3.360481137E0,-6.203990936E0,-7.075576782E0,-3.456432343E0
3.366036137E0,-6.085546017E0,-7.144370079E0,-3.411566973E0
3.371591137E0,-5.958128452E0,-7.192226887E0,-3.561118364E0
3.377146137E0,-5.971887112E0,-7.247261524E0,-3.633501291E0
3.382701137E0,-5.629713535E0,-7.320840836E0,-3.809971809E0
3.388256137E0,-5.650052547E0,-7.520641804E0,-3.577867985E0
3.393811137E0,-5.958128452E0,-7.666005611E0,-3.250649452E0
3.399366137E0,-5.784050465E0,-7.739584923E0,-3.086143017E0
3.404921137E0,-5.265406132E0,-7.684549809E0,-3.369692564E0
3.410476137E0,-4.969294548E0,-7.493722439E0,-3.923032761E0
3.416031137E0,-5.294120312E0,-7.383054256E0,-3.741776466E0
3.421586137E0,-5.562116146E0,-7.456633568E0,-3.613162279E0
3.427141137E0,-5.517848969E0,-7.689335346E0,-3.704687595E0
3.432696137E0,-5.806782246E0,-7.855038643E0,-3.569493294E0
3.438251137E0,-5.973083496E0,-7.959724426E0,-3.595216036E0
3.443806137E0,-6.330212116E0,-7.873582840E0,-3.675973892E0
3.449361137E0,-6.404987812E0,-7.964509964E0,-3.446262836E0
3.454916137E0,-6.744768620E0,-8.009375572E0,-3.063411236E0
3.460471137E0,-6.613761902E0,-7.859225750E0,-2.550748825E0
3.466026137E0,-6.311667919E0,-7.640282631E0,-2.576471806E0
3.471581137E0,-6.160920143E0,-7.496713161E0,-2.566900492E0
3.477136137E0,-6.181857109E0,-7.427919865E0,-2.836691141E0
3.482691137E0,-6.221338749E0,-7.343572617E0,-3.120838881E0
3.488246137E0,-5.818148136E0,-7.350750923E0,-2.851048231E0
3.493801137E0,-5.849255085E0,-7.332206726E0,-2.656631231E0
3.499356137E0,-6.077769279E0,-7.228717327E0,-2.486740828E0
3.504911137E0,-6.293123722E0,-6.997211456E0,-2.129014015E0
3.510466137E0,-6.285944939E0,-6.583851337E0,-2.028515339E0
3.516021137E0,-6.098108292E0,-6.116054535E0,-2.190030813E0
3.521576137E0,-6.455237389E0,-5.732604980E0,-2.744567633E0
3.527131137E0,-7.132406235E0,-5.560321808E0,-3.297309637E0
3.532686137E0,-7.150950432E0,-5.746363640E0,-3.477967739E0
3.538241137E0,-6.599404812E0,-6.018547058E0,-3.421736479E0
3.543796137E0,-6.203392506E0,-6.050850391E0,-3.512663603E0
3.549351137E0,-6.321837425E0,-5.900700569E0,-3.811766386E0
3.554906137E0,-6.260222435E0,-5.843272686E0,-3.646063566E0
3.560461137E0,-6.011368752E0,-5.900102615E0,-3.246462107E0
3.566016137E0,-5.998208046E0,-5.970690727E0,-2.855235577E0
3.571571137E0,-5.955735683E0,-6.066403389E0,-2.698505640E0
3.577126137E0,-6.025725842E0,-6.102894306E0,-2.688336134E0
3.582681137E0,-6.222535133E0,-6.099903107E0,-2.833700180E0
3.588236137E0,-6.259026051E0,-6.111867428E0,-2.851048231E0
3.593791137E0,-6.371488571E0,-6.112465382E0,-2.739781857E0
3.599346137E0,-6.489933014E0,-6.119045734E0,-2.809772015E0
3.604901137E0,-6.649653912E0,-6.171687603E0,-2.712264538E0
3.610456137E0,-6.754340172E0,-6.259026051E0,-2.475374937E0
3.616011137E0,-6.735197544E0,-6.300900459E0,-2.408974171E0
3.621566137E0,-6.871588230E0,-6.317051888E0,-2.533999205E0
3.627121137E0,-7.057630539E0,-6.437291145E0,-3.022733212E0
3.632676137E0,-7.104290485E0,-6.593422890E0,-3.535395384E0
3.638231137E0,-7.211369038E0,-6.702894211E0,-3.788436413E0
3.643786137E0,-7.184450150E0,-6.745367050E0,-3.926621914E0
3.649341137E0,-7.168298244E0,-6.779464722E0,-4.028914928E0
3.654896137E0,-7.126423836E0,-6.827321053E0,-3.937389612E0
3.660451137E0,-7.046862602E0,-6.810571671E0,-3.687937975E0
3.666006137E0,-6.925426960E0,-6.681957245E0,-3.527618885E0
3.671561137E0,-6.890132904E0,-6.562914371E0,-3.416950703E0
3.677116137E0,-6.786643028E0,-6.440880299E0,-3.247060299E0
3.682671137E0,-6.729813576E0,-6.365506649E0,-3.068196774E0
3.688226137E0,-6.614359856E0,-6.336194515E0,-2.886342287E0
3.693781137E0,-6.452246189E0,-6.338587284E0,-2.843271494E0
3.699336137E0,-6.507281303E0,-6.299105644E0,-2.768495798E0
3.704891137E0,-6.589235306E0,-6.299105644E0,-2.846860647E0
3.710446137E0,-6.589235306E0,-6.400800705E0,-2.888136864E0
3.716001137E0,-6.624529362E0,-6.546762943E0,-3.071786165E0
3.721556137E0,-6.649653912E0,-6.627520561E0,-3.181855917E0
3.727111137E0,-6.716653347E0,-6.533602238E0,-3.118446112E0
3.732666137E0,-6.734599113E0,-6.492924213E0,-3.011965513E0
3.738221137E0,-6.787241459E0,-6.495316982E0,-3.169891834E0
3.743776137E0,-6.773482800E0,-6.497709751E0,-2.935395241E0
3.749331137E0,-7.056434155E0,-6.477370739E0,-2.959323406E0
3.754886137E0,-6.663413048E0,-6.761518478E0,-4.305884361E0
3.760441137E0,-6.626922131E0,-7.003193855E0,-4.646263599E0
3.765996137E0,-6.709474564E0,-6.955935478E0,-3.967898130E0
3.771551137E0,-6.614359856E0,-6.865008354E0,-3.781257868E0
3.777106137E0,-6.640681267E0,-6.854240417E0,-3.628117323E0
3.782661137E0,-6.737590313E0,-6.578467846E0,-3.287140131E0
3.788216137E0,-6.625725746E0,-6.093322754E0,-3.095714331E0
3.793771137E0,-6.705287457E0,-6.167500496E0,-3.041875839E0
3.799326137E0,-6.827919483E0,-6.436692715E0,-2.650649309E0
3.804881137E0,-7.104290485E0,-6.516852379E0,-2.484946251E0
3.810436137E0,-7.105486870E0,-6.543173313E0,-2.696112871E0
3.815991137E0,-6.991229534E0,-6.416353703E0,-3.019742250E0
3.821546137E0,-6.915855408E0,-6.219544411E0,-3.152543783E0
3.827101137E0,-6.692724705E0,-5.964708805E0,-2.974876642E0
3.832656137E0,-6.400800705E0,-5.792425632E0,-2.736790895E0
3.838211137E0,-6.244668961E0,-5.583651543E0,-2.167299032E0
3.843766137E0,-6.147759438E0,-5.404190063E0,-1.998605132E0
3.849321137E0,-6.083751678E0,-5.257031441E0,-1.975275040E0
3.854876137E0,-6.306882381E0,-5.087141037E0,-2.054836512E0
3.860431137E0,-6.473781586E0,-5.075775146E0,-2.005783558E0
3.865986137E0,-6.544369698E0,-5.243272781E0,-1.908874273E0
3.871541137E0,-6.742974281E0,-5.487340450E0,-1.770090580E0
3.877096137E0,-7.051050186E0,-5.759523869E0,-1.796411633E0
3.882651137E0,-7.402794838E0,-6.103492260E0,-1.757528186E0
3.888206137E0,-7.122236729E0,-6.923632145E0,-1.943570137E0
3.893761137E0,-7.721638680E0,-7.171887875E0,-2.191227436E0
3.899316137E0,-7.947162151E0,-7.243073940E0,-2.552543640E0
3.904871137E0,-8.052446365E0,-7.205985546E0,-2.979662418E0
3.910426137E0,-7.889734268E0,-7.123433113E0,-3.341576815E0
3.915981137E0,-7.676773071E0,-6.969694138E0,-3.945166349E0
3.921536137E0,-7.622934818E0,-6.687341213E0,-4.338187218E0
3.927091137E0,-6.910471916E0,-6.454041004E0,-3.949951887E0
3.932646137E0,-6.385247231E0,-6.116054535E0,-3.698705673E0
3.938201137E0,-6.228517532E0,-5.757729530E0,-3.122633457E0
3.943756137E0,-5.924030781E0,-5.508277893E0,-2.559721947E0
3.949311137E0,-5.902495384E0,-5.152345181E0,-2.198405743E0
3.954866137E0,-5.645864964E0,-5.401797295E0,-1.758126378E0
3.960421137E0,-5.820540905E0,-5.912664890E0,-1.450648785E0
3.965976137E0,-6.769893646E0,-6.649055958E0,-1.725225091E0
3.971531137E0,-7.200003147E0,-7.135396957E0,-2.519642353E0
3.977086137E0,-7.095317364E0,-7.417750359E0,-2.995215654E0
3.982641137E0,-6.095715523E0,-7.388438225E0,-3.011965513E0
3.988196137E0,-6.598208427E0,-7.117451191E0,-2.753540754E0
3.993751137E0,-7.156932354E0,-7.338787079E0,-3.249453068E0
3.999306137E0,-7.459026337E0,-7.670791149E0,-3.879363775E0
4.004861137E0,-7.573882103E0,-7.929814339E0,-4.238286972E0
4.010416137E0,-7.512266636E0,-7.982456207E0,-4.229313850E0
4.015971137E0,-7.321439266E0,-7.479963779E0,-3.144767046E0
4.021526137E0,-6.718447685E0,-6.681358814E0,-2.404786825E0
4.027081137E0,-5.785845280E0,-6.379863262E0,-1.818545222E0
4.032636137E0,-4.840680122E0,-6.359524250E0,-1.910070658E0
4.038191137E0,-4.672584534E0,-6.499504566E0,-2.642872572E0
4.043746137E0,-5.248058319E0,-6.681358814E0,-3.594019651E0
4.049301137E0,-5.797809124E0,-6.729215622E0,-4.048655987E0
4.054856137E0,-5.962913990E0,-6.854838848E0,-3.744169235E0
4.060411137E0,-5.944369793E0,-6.885945320E0,-2.939582586E0
4.065966137E0,-5.533402443E0,-6.739983082E0,-2.114656925E0
4.071521137E0,-5.682355404E0,-6.826124668E0,-2.143969059E0
4.077076137E0,-6.357729912E0,-6.762116909E0,-2.158325911E0
4.082631137E0,-6.934400082E0,-6.926024914E0,-1.698305845E0
4.088186137E0,-7.435098171E0,-7.210771084E0,-1.774876237E0
4.093741137E0,-7.260422230E0,-7.414160728E0,-2.252244234E0
4.099296137E0,-6.473781586E0,-7.529016495E0,-2.304288149E0
4.104851137E0,-5.871388435E0,-7.415357590E0,-2.340778828E0
4.110406137E0,-5.778666496E0,-7.329215527E0,-2.127219439E0
4.115961137E0,-5.759523869E0,-7.485347271E0,-1.968694806E0
4.121516137E0,-5.932405472E0,-7.756932735E0,-2.119442701E0
4.127071137E0,-5.871986866E0,-8.106285095E0,-2.175075769E0
4.132626137E0,-5.953342915E0,-7.926823139E0,-2.251646042E0
4.138181137E0,-6.101697922E0,-7.429116249E0,-2.390429735E0
4.143736137E0,-5.139184952E0,-3.783052683E0,-1.063609719E0
4.149291137E0,-4.872983456E0,-7.310073376E-1,8.039883971E-1
4.154846137E0,-7.658827305E0,-6.150750637E0,-3.126222849E0
4.160401137E0,-8.343173981E0,-8.007580757E0,-3.279363394E0
4.165956137E0,-7.959126472E0,-8.874979019E0,-3.778865099E0
4.171511137E0,-7.839485168E0,-8.840881348E0,-3.659224033E0
4.177066137E0,-7.386643410E0,-8.745766640E0,-3.591626883E0
4.182621137E0,-7.132406235E0,-8.488538742E0,-3.186641455E0
4.188176137E0,-7.318448067E0,-8.108079910E0,-2.481357098E0
4.193731137E0,-7.575676441E0,-8.020143509E0,-1.766501307E0
4.199286137E0,-7.424928665E0,-8.053044319E0,-1.746162295E0
4.204841137E0,-6.908677101E0,-8.143971443E0,-1.821536183E0
4.210396137E0,-6.132804394E0,-8.098507881E0,-1.820937991E0
4.215951137E0,-6.148357868E0,-8.108079910E0,-1.713859200E0
4.221506137E0,-5.972485542E0,-7.709674358E0,-1.200598717E0
4.227061137E0,-6.264409542E0,-7.638488293E0,-7.148557901E-1
4.232616137E0,-5.967101574E0,-7.940581799E0,-9.912267923E-1
4.238171137E0,-5.971887112E0,-8.256434441E0,-1.631905079E0
4.243726137E0,-5.985645771E0,-8.357531548E0,-1.962712765E0
4.249281137E0,-6.116054535E0,-8.310871124E0,-2.062613010E0
4.254836137E0,-6.334998131E0,-8.233702660E0,-2.267199516E0
4.260391137E0,-6.062216282E0,-7.974081516E0,-2.170888424E0
4.265946137E0,-5.838487148E0,-7.582256794E0,-1.889731646E0
4.271501137E0,-5.781059742E0,-7.139584541E0,-1.720439434E0
4.277056137E0,-5.708078384E0,-6.888338089E0,-1.584048629E0
4.282611137E0,-5.634499073E0,-6.703492641E0,-1.326820135E0
4.288166137E0,-5.699105263E0,-6.433103561E0,-1.220937729E0
4.293721137E0,-5.795416355E0,-6.187241077E0,-1.186840057E0
4.299276137E0,-5.778068542E0,-6.064609051E0,-1.097109199E0
4.304831137E0,-5.739185333E0,-6.067001820E0,-9.565308690E-1
4.310386137E0,-5.633302689E0,-6.181857109E0,-8.691928387E-1
4.315941137E0,-5.790630817E0,-6.307480335E0,-7.854440212E-1
4.321496137E0,-5.873183250E0,-6.546762943E0,-8.500502706E-1
4.327051137E0,-5.946762562E0,-6.723831654E0,-7.836494446E-1
4.332606137E0,-6.377470493E0,-7.027122021E0,-5.395814776E-1
4.338161137E0,-5.892325878E0,-7.053442955E0,-6.107679605E-1
4.343716137E0,-6.064609051E0,-7.168896675E0,-6.538388133E-1
4.349271137E0,-6.221937180E0,-7.158128738E0,-5.694918036E-1
4.354826137E0,-6.114858150E0,-7.341179848E0,-3.248256743E-1
4.360381137E0,-6.270989895E0,-7.367500782E0,-5.563312769E-1
4.365936137E0,-6.064010620E0,-7.439883709E0,-2.644068897E-1
4.371491137E0,-5.931807518E0,-7.202396393E0,-2.632105052E-1
4.377046137E0,-5.963512421E0,-6.999006271E0,-2.697907388E-1
4.382601137E0,-5.463412285E0,-6.632306099E0,-3.930211067E-1
4.388156137E0,-5.786443233E0,-6.324230194E0,-7.208378315E-1
4.393711137E0,-5.638088226E0,-6.087938786E0,-8.973084688E-1
4.399266137E0,-5.930611134E0,-5.991029739E0,-1.137188911E0
4.404821137E0,-5.944369793E0,-6.083751678E0,-9.912267923E-1
4.410376137E0,-6.253043652E0,-6.276971817E0,-1.031306505E0
4.415931137E0,-6.406184196E0,-6.617949009E0,-1.234696507E0
4.421486137E0,-6.443871498E0,-6.914659023E0,-1.014556766E0
4.427041137E0,-6.160920143E0,-7.360322475E0,-9.888339639E-1
4.432596137E0,-5.933601856E0,-7.117451191E0,-1.753939033E0
4.438151137E0,-5.385047436E0,-6.806384087E0,-2.002792597E0
4.443706137E0,-4.650450706E0,-6.443871498E0,-1.335195065E0
4.449261137E0,-4.585246563E0,-7.007979393E0,8.422735929E-1
4.454816137E0,-3.967299938E0,-7.705487251E0,4.609772682E0
4.460371137E0,-3.915854216E0,-8.350353241E0,5.902495384E0
4.465926137E0,-4.664209366E0,-8.079963684E0,3.777668715E0
4.471481137E0,-4.518845558E0,-6.900302410E0,1.337587833E0
4.477036137E0,-4.074378967E0,-5.350351334E0,9.810572863E-2
4.482591137E0,-3.610171080E0,-4.427918434E0,3.882354796E-1
4.488146137E0,-3.857828379E0,-2.085943222E0,7.938188910E-1
4.493701137E0,-5.497509956E0,-1.974078640E-2,2.883351147E-1
4.499256137E0,-6.659225464E0,-3.020938635E-1,8.709874153E-1
4.504811137E0,-5.531607628E0,-1.346560955E0,1.656431437E0
4.510366137E0,-4.116851330E0,-3.545564890E0,2.572882652E0
4.515921137E0,-3.639483213E0,-5.815157413E0,3.188436270E0
4.521476137E0,-3.690928936E0,-7.015756130E0,3.196212769E0
4.527031137E0,-4.440480709E0,-7.980063438E0,3.348755360E0
4.532586137E0,-5.473581791E0,-9.122636795E0,2.897109985E0
4.538141137E0,-5.837290764E0,-1.070309544E1,3.493520975E0
4.543696137E0,-5.072783947E0,-1.317428303E1,3.582055569E0
4.549251137E0,-4.159922123E0,-1.391725445E1,2.935395241E0
4.554806137E0,-4.141377926E0,-1.402014637E1,1.801795483E0
4.560361137E0,-3.973880291E0,-1.308574867E1,2.219343036E-1
4.565916137E0,-4.543970108E0,-1.084546852E1,-1.310070395E0
4.571471137E0,-4.720440865E0,-8.542376518E0,-3.035893679E0
4.577026137E0,-4.321437836E0,-6.763911247E0,-3.710669756E0
4.582581137E0,-3.193820000E0,-5.522634506E0,-4.390231133E0
4.588136137E0,-2.401795626E0,-4.681557655E0,-4.734797955E0
4.593691137E0,-2.888136864E0,-4.582255363E0,-5.633901119E0
4.599246137E0,-3.703491211E0,-6.878767014E0,-5.075775146E0
4.604801137E0,-3.431905985E0,-7.817351341E0,-2.757728100E0
4.610356137E0,-3.719642878E0,-8.825926781E0,-8.404789567E-1
4.615911137E0,-3.510869026E0,-8.321639061E0,1.762313843E0
4.621466137E0,-3.321237803E0,-7.959724426E0,3.400201082E0
4.627021137E0,-6.183053493E0,-9.838688850E0,4.253242016E0
4.632576137E0,-7.314260483E0,-1.102493000E1,3.924827337E0
4.638131137E0,-7.174878597E0,-1.117926693E1,3.467200041E0
4.643686137E0,-6.713662148E0,-1.110150051E1,3.147160053E0
4.649241137E0,-5.244469166E0,-1.052363396E1,2.622533560E0
4.654796137E0,-6.462415695E0,-1.126002502E1,9.337990284E-1
4.660351137E0,-4.951348305E0,-1.198265743E1,8.303094506E-1
4.665906137E0,-4.653441906E0,-1.245404339E1,1.664208174E0
4.671461137E0,-4.500301361E0,-1.220758247E1,2.449652195E0
4.677016137E0,-4.815555573E0,-1.105125141E1,3.062214851E0
4.682571137E0,-5.489733219E0,-9.626923561E0,3.434896946E0
4.688126137E0,-5.090730190E0,-8.668000221E0,3.342773199E0
4.693681137E0,-5.017150879E0,-8.647063255E0,3.011367321E0
4.699236137E0,-4.085146427E0,-9.393025398E0,2.603390932E0
4.704791137E0,-3.661018610E0,-9.621540070E0,2.320439816E0
4.710346137E0,-3.835694790E0,-9.904491425E0,2.369492531E0
4.715901137E0,-3.553341627E0,-9.686744690E0,2.743371248E0
4.721456137E0,-3.240479946E0,-9.198608398E0,2.916850805E0
4.727011137E0,-3.467200041E0,-8.763712883E0,2.178066730E0
4.732566137E0,-3.652643681E0,-8.155337334E0,1.555334687E0
4.738121137E0,-3.829114437E0,-7.372884750E0,1.317248821E0
4.743676137E0,-3.885345697E0,-7.279564857E0,1.258624673E0
4.749231137E0,-3.296113253E0,-7.408178806E0,1.644467354E0
4.754786137E0,-2.605783939E0,-7.357929707E0,2.149951220E0
4.760341137E0,-1.977069736E0,-7.746165276E0,2.203191519E0
4.765896137E0,-1.255633712E0,-8.163114548E0,2.098505497E0
4.771451137E0,-3.044866920E-1,-8.444869041E0,2.111067772E0
4.777006137E0,-2.225325108E-1,-8.904291153E0,2.480758905E0
4.782561137E0,-5.252245665E-1,-8.873184204E0,1.450648785E0
4.788116137E0,-9.517452121E-1,-8.634500504E0,1.207179070E0
4.793671137E0,-1.300499082E0,-8.829515457E0,1.701296926E0
4.799226137E0,-8.476574421E-1,-8.322237015E0,2.957528830E0
4.804781137E0,-1.222134113E0,-7.316055298E0,3.635894060E0
4.810336137E0,-1.667199135E0,-6.489335060E0,3.448655605E0
4.815891137E0,-1.795813441E0,-6.443273067E0,2.716451883E0
4.821446137E0,-1.030110121E0,-6.421737671E0,2.153540373E0
4.827001137E0,4.773681164E-1,-6.141179085E0,2.256431818E0
4.832556137E0,-5.802595019E-1,-7.241877556E0,1.791027784E0
4.838111137E0,-1.507478237E0,-7.234101295E0,2.126022816E0
4.843666137E0,-2.736790895E0,-8.449056625E0,2.365903378E0
4.849221137E0,-2.468794823E0,-9.006584167E0,2.310270309E0
4.854776137E0,-2.176870346E0,-9.561718941E0,1.039681435E0
4.860331137E0,-7.178468108E-1,-9.294919968E0,6.520441920E-2
4.865886137E0,1.890928149E0,-8.660821915E0,5.461617708E-1
4.871441137E0,4.272983074E0,-9.629316330E0,1.731805444E0
4.876996137E0,4.795814991E0,-1.023170948E1,2.686541557E0
4.882551137E0,4.801796913E0,-9.734002113E0,2.959921598E0
4.888106137E0,5.396413326E0,-6.977470875E0,3.134597778E0
4.893661137E0,3.527618885E0,-5.298307419E0,5.974878311E0
4.899216137E0,3.232703447E0,-3.872783422E0,5.082953453E0
4.904771137E0,1.761715651E0,-7.043273449E0,4.234697819E0
4.910326137E0,1.681556106E0,-6.973283291E0,5.600401402E0
4.915881137E0,3.924229145E-1,-7.766504288E0,5.187639713E0
4.921436137E0,-1.454836130E0,-8.040482521E0,5.362913609E0
4.926991137E0,-1.368096352E0,-1.013001442E1,2.438286304E0
4.932546137E0,-1.366301775E0,-1.263769245E1,6.101697683E-2
4.938101137E0,-1.817348838E0,-1.377548027E1,-4.163511276E0
4.943656137E0,-1.924427629E0,-1.403809261E1,-8.756534576E0
4.949211137E0,-1.514058471E0,-1.207119179E1,-8.850452423E0
4.954766137E0,-1.599003673E0,-1.086700439E1,-8.484949112E0
4.960321137E0,-2.018944025E0,-1.025803089E1,-7.886145115E0
4.965876137E0,-2.563311338E0,-9.500701904E0,-6.884150982E0
4.971431137E0,-2.931805849E0,-8.508278847E0,-6.098706722E0
4.976986137E0,-3.172284603E0,-7.734200954E0,-4.923830986E0
4.982541137E0,-3.463012457E0,-8.193622589E0,-4.195814610E0
4.988096137E0,-2.958127022E0,-8.809774399E0,-4.113262177E0
4.993651137E0,-2.365903378E0,-9.013762474E0,-3.668197155E0
4.999206137E0,-1.914258122E0,-9.366106033E0,-2.845066071E0
5.004761137E0,-1.993819475E0,-1.006301594E1,-8.703892231E-1
5.010316137E0,-1.268794179E0,-1.027059269E1,1.217348576E0
5.015871137E0,-6.017948985E-1,-1.020538902E1,1.783251047E0
5.021426137E0,3.146561682E-1,-9.800403595E0,2.575873613E0
5.026981137E0,7.914260626E-1,-1.010548782E1,2.362912416E0
5.032536137E0,3.978067636E-1,-1.183310604E1,2.267797709E0
5.038091137E0,-1.034297585E0,-1.366062450E1,2.550748825E0
5.043646137E0,-2.135594130E0,-1.529432392E1,2.580060959E0
5.049201137E0,-3.303889751E0,-1.809691811E1,2.294716835E0
5.054756137E0,-4.413561344E0,-2.124647141E1,3.356531858E0
5.060311137E0,-4.732405186E0,-2.444687080E1,7.119245529E0
5.065866137E0,-3.424727440E0,-2.642932510E1,1.027418232E1
5.071421137E0,4.289134443E-1,-2.505105782E1,8.568697929E0
5.076976137E0,4.380660057E0,-2.175913239E1,6.531807423E0
5.082531137E0,6.877570629E0,-1.849412537E1,5.012365341E0
5.088086137E0,7.748558044E0,-1.580997753E1,3.359523058E0
5.093641137E0,7.389634609E0,-1.365165138E1,1.630110383E0
5.099196137E0,6.558128834E0,-1.185224915E1,1.214357466E-1
5.104751137E0,5.197210789E0,-1.047338486E1,-8.129615188E-1
5.110306137E0,3.497110367E0,-9.631709099E0,-1.437488198E0
5.115861137E0,1.953739643E0,-9.105288506E0,-1.869392633E0
5.121416137E0,6.861419082E-1,-8.740981102E0,-2.169692039E0
5.126971137E0,-2.739782035E-1,-8.483752251E0,-2.246262312E0
5.132526137E0,-7.776673436E-1,-8.318648338E0,-2.261815548E0
5.138081137E0,-7.980063558E-1,-8.228917122E0,-2.242672920E0
5.143636137E0,-7.082754970E-1,-8.255238533E0,-2.233700037E0
5.149191137E0,-6.933203340E-1,-8.410173416E0,-2.244467735E0
5.154746137E0,-5.802595019E-1,-8.633303642E0,-2.222334146E0
5.160301137E0,-2.967100143E-1,-8.952746391E0,-2.087139606E0
5.165856137E0,-7.776673883E-2,-9.292527199E0,-1.892722726E0
5.171411137E0,5.024927482E-2,-9.535996437E0,-1.694118381E0
5.176966137E0,2.039881349E-1,-9.760921478E0,-1.437488198E0
5.182521137E0,4.085744619E-1,-9.934999466E0,-1.128814101E0
5.188076137E0,5.551348329E-1,-1.000798035E1,-7.345965505E-1
5.193631137E0,6.305087805E-1,-9.882357597E0,-3.260220885E-1
5.199186137E0,6.610172391E-1,-9.713065147E0,2.213360928E-2
5.204741137E0,6.502495408E-1,-9.594022751E0,2.715853751E-1
5.210296137E0,6.969096065E-1,-9.520442963E0,4.127618968E-1
5.215851137E0,6.915257573E-1,-9.424132347E0,4.731806815E-1
5.221406137E0,6.861419082E-1,-9.424730301E0,4.480560422E-1
5.226961137E0,8.386843204E-1,-9.530612946E0,4.061816335E-1
5.232516137E0,1.061815023E0,-9.660423279E0,3.613162339E-1
5.238071137E0,1.264606714E0,-9.829715729E0,2.787638307E-1
5.243626137E0,1.403390527E0,-9.982855797E0,1.974078715E-1
5.249181137E0,1.329811215E0,-9.893723488E0,9.032905847E-2
5.254736137E0,1.398006678E0,-9.796216011E0,-7.597211748E-2
5.260291137E0,1.509272933E0,-9.782457352E0,-2.237289101E-1
5.265846137E0,1.592423439E0,-9.710074425E0,-3.212364316E-1
5.271401137E0,1.700100541E0,-9.727422714E0,-4.851447940E-1
5.276956137E0,1.746162295E0,-9.705288887E0,-6.813562512E-1
5.282511137E0,1.598405480E0,-9.682557106E0,-8.614161611E-1
5.288066137E0,1.670190215E0,-9.647860527E0,-1.082752228E0
5.293621137E0,1.896311998E0,-9.538987160E0,-1.221535921E0
5.299176137E0,2.029113531E0,-9.429515839E0,-1.310070395E0
5.304731137E0,2.102692842E0,-9.363115311E0,-1.358525038E0
5.310286137E0,2.135594130E0,-9.351150513E0,-1.387837172E0
5.315841137E0,2.011765718E0,-9.195617676E0,-1.469791293E0
5.321396137E0,1.789233088E0,-9.047262192E0,-1.531406522E0
5.326951137E0,1.584646821E0,-9.177073479E0,-1.491326690E0
5.332506137E0,1.427318692E0,-9.334999084E0,-1.428515077E0
5.338061137E0,1.473978758E0,-9.329615593E0,-1.329213023E0
5.343616137E0,1.559522152E0,-9.464211464E0,-1.281356573E0
5.349171137E0,1.466202021E0,-9.826126099E0,-1.255633712E0
5.354726137E0,1.494915962E0,-1.010249710E1,-1.312463164E0
5.360281137E0,1.660618901E0,-1.007318497E1,-1.259821177E0
5.365836137E0,1.718644857E0,-9.947562218E0,-1.398006678E0
5.371391137E0,1.908276081E0,-9.867402077E0,-1.494317770E0
5.376946137E0,1.950150490E0,-9.780064583E0,-1.604985833E0
5.382501137E0,1.960918188E0,-9.735796928E0,-1.668395638E0
5.388056137E0,1.938186288E0,-9.832108498E0,-1.685743570E0
5.393611137E0,1.928615093E0,-9.936794281E0,-1.646860242E0
5.399166137E0,1.919043779E0,-9.732806206E0,-1.682752490E0
5.404721137E0,1.840678811E0,-9.550353050E0,-1.716850281E0
5.410276137E0,1.743769526E0,-9.430113792E0,-1.778465390E0
5.415831137E0,1.563709617E0,-9.407979965E0,-1.826920033E0
5.421386137E0,1.518245935E0,-9.623334885E0,-1.763510346E0
5.426941137E0,1.470389485E0,-9.577272415E0,-1.786840320E0
5.432496137E0,1.394417405E0,-9.326624870E0,-1.874178290E0
5.438051137E0,1.228116274E0,-9.082556725E0,-1.896910191E0
5.443606137E0,9.708877802E-1,-8.964710236E0,-1.883151412E0
5.449161137E0,7.124629617E-1,-8.920442581E0,-1.837687731E0
5.454716137E0,5.682953596E-1,-9.077172279E0,-1.810768485E0
5.460271137E0,6.065805554E-1,-9.385847092E0,-1.759322882E0
5.465826137E0,6.233302951E-1,-9.558130264E0,-1.732403636E0
5.471381137E0,6.215356588E-1,-9.616754532E0,-1.743171334E0
5.476936137E0,5.994020700E-1,-9.618548393E0,-1.783251047E0
5.482491137E0,6.771687865E-1,-9.653842926E0,-1.846660852E0
5.488046137E0,7.154539824E-1,-9.605986595E0,-1.886740685E0
5.493601137E0,7.746763229E-1,-9.466006279E0,-1.947159410E0
5.499156137E0,8.554341197E-1,-9.371489525E0,-1.984248161E0
5.504711137E0,8.530412912E-1,-9.354142189E0,-2.020140409E0
5.510266137E0,6.436693072E-1,-9.467801094E0,-2.111067772E0
5.515821137E0,4.235295951E-1,-9.609575272E0,-2.219941139E0
5.521376137E0,2.476571500E-1,-9.748957634E0,-2.313859463E0
5.526931137E0,1.322034448E-1,-9.899106979E0,-2.380260229E0
5.532486137E0,2.811566554E-2,-9.994820595E0,-2.419143677E0
5.538041137E0,-7.657032460E-2,-1.002173901E1,-2.421536446E0
5.543596137E0,-1.136590764E-1,-1.008634567E1,-2.408375978E0
5.549151137E0,-1.974078715E-1,-1.011685371E1,-2.365903378E0
5.554706137E0,-2.889333367E-1,-1.019222832E1,-2.313261271E0
5.560261137E0,-3.714857101E-1,-1.021256733E1,-2.234896421E0
5.565816137E0,-4.546363056E-1,-1.016829967E1,-2.150549412E0
5.571371137E0,-5.682953596E-1,-1.011027431E1,-2.046461582E0
5.576926137E0,-6.616154313E-1,-9.998409271E0,-1.950748682E0
5.582481137E0,-6.981059909E-1,-9.926026344E0,-1.899901152E0
5.588036137E0,-7.274180651E-1,-9.852447510E0,-1.851446509E0
5.593591137E0,-7.633104324E-1,-9.802796364E0,-1.802991867E0
5.599146137E0,-8.853443861E-1,-9.717850685E0,-1.751546144E0
5.604701137E0,-8.907282352E-1,-9.716654778E0,-1.717448473E0
5.610256137E0,-9.038887620E-1,-9.683155060E0,-1.688734531E0
5.615811137E0,-8.679963946E-1,-9.634700775E0,-1.645065546E0
5.621366137E0,-6.861419082E-1,-9.542576790E0,-1.622931957E0
5.626921137E0,-3.828516304E-1,-9.549755096E0,-1.683948994E0
5.632476137E0,-2.871387079E-2,-9.677172661E0,-1.725225091E0
5.638031137E0,1.782652885E-1,-9.707681656E0,-1.777269006E0
5.643586137E0,3.631108403E-1,-9.665208817E0,-1.851446509E0
5.649141137E0,6.011967063E-1,-9.599406242E0,-1.902294040E0
5.654696137E0,9.170492887E-1,-9.488738060E0,-1.965105653E0
5.660251137E0,1.253240824E0,-9.400801659E0,-2.001596212E0
5.665806137E0,1.420738459E0,-9.371489525E0,-2.015953064E0
5.671361137E0,1.548754454E0,-9.341579437E0,-2.042872429E0
5.676916137E0,1.647458434E0,-9.327820778E0,-2.041675806E0
5.682471137E0,1.799402595E0,-9.352347374E0,-2.039283037E0
5.688026137E0,1.878365755E0,-9.364311218E0,-2.041077614E0
5.693581137E0,2.047059774E0,-9.406784058E0,-2.002194405E0
5.699136137E0,2.143370867E0,-9.467203140E0,-1.983051777E0
5.704691137E0,2.132004976E0,-9.508479118E0,-1.981257200E0
5.710246137E0,2.106282234E0,-9.597611427E0,-1.966302037E0
5.715801137E0,2.001596212E0,-9.710672379E0,-1.940579176E0
5.721356137E0,1.836491346E0,-9.825528145E0,-1.902294040E0
5.726911137E0,1.663011789E0,-9.900901794E0,-1.872383714E0
5.732466137E0,1.522433400E0,-9.925428391E0,-1.838884234E0
5.738021137E0,1.388435364E0,-9.942177773E0,-1.826920033E0
5.743576137E0,1.289731383E0,-9.869196892E0,-1.820339799E0
5.749131137E0,1.143171072E0,-9.704092026E0,-1.850250125E0
5.754686137E0,8.865407705E-1,-9.674181938E0,-1.895713687E0
5.760241137E0,7.118647099E-1,-9.850652695E0,-1.938784599E0
5.765796137E0,6.951149702E-1,-1.002054310E1,-1.944168448E0
5.771351137E0,7.770691514E-1,-1.009711361E1,-1.956730723E0
5.776906137E0,8.871390224E-1,-1.003789139E1,-1.950150490E0
5.782461137E0,8.620143533E-1,-9.875777245E0,-1.957328916E0
5.788016137E0,6.346961856E-1,-9.698708534E0,-1.976471543E0
5.793571137E0,4.013960063E-1,-9.568299294E0,-1.989632010E0
5.799126137E0,3.020938635E-1,-9.513862610E0,-2.014158487E0
5.804681137E0,3.936193287E-1,-9.528818130E0,-2.065604210E0
5.810236137E0,5.479564071E-1,-9.509077072E0,-2.154736757E0
5.815791137E0,7.076773047E-1,-9.480362892E0,-2.267199516E0
5.821346137E0,8.099704385E-1,-9.447462082E0,-2.404188633E0
5.826901137E0,8.566305041E-1,-9.420542717E0,-2.515454769E0
5.832456137E0,9.146564603E-1,-9.412167549E0,-2.574079037E0
5.838011137E0,1.019342422E0,-9.423533440E0,-2.597409010E0
5.843566137E0,1.141974568E0,-9.449256897E0,-2.590828657E0
5.849121137E0,1.219741344E0,-9.454042435E0,-2.554936409E0
5.854676137E0,1.273579836E0,-9.518648148E0,-2.514856577E0
5.860231137E0,1.296909928E0,-9.613164902E0,-2.465205431E0
5.865786137E0,1.360917926E0,-9.684351921E0,-2.411965132E0
5.871341137E0,1.403988719E0,-9.711869240E0,-2.341377020E0
5.876896137E0,1.378864050E0,-9.701101303E0,-2.285145521E0
5.882451137E0,1.333400369E0,-9.694520950E0,-2.213959217E0
5.888006137E0,1.284945726E0,-9.694520950E0,-2.154736757E0
5.893561137E0,1.213161111E0,-9.675378799E0,-2.108675003E0
5.899116137E0,1.127019525E0,-9.634101868E0,-2.087139606E0
5.904671137E0,1.034895778E0,-9.577272415E0,-2.082353830E0
5.910226137E0,9.361918569E-1,-9.513264656E0,-2.096710920E0
5.915781137E0,8.003991842E-1,-9.459425926E0,-2.131406784E0
5.921336137E0,6.628118753E-1,-9.449256897E0,-2.178066730E0
5.926891137E0,5.736792088E-1,-9.478569031E0,-2.204986095E0
5.932446137E0,4.959124923E-1,-9.492327690E0,-2.255833626E0
5.938001137E0,4.175475538E-1,-9.517452240E0,-2.292922258E0
5.943556137E0,3.541377485E-1,-9.539586067E0,-2.325225353E0
5.949111137E0,3.092723191E-1,-9.552745819E0,-2.369492531E0
5.954666137E0,2.309073806E-1,-9.588040352E0,-2.434697151E0
5.960221137E0,1.884347796E-1,-9.584450722E0,-2.467000246E0
5.965776137E0,1.070788130E-1,-9.605388641E0,-2.493919373E0
5.971331137E0,3.349951655E-2,-9.605388641E0,-2.525624275E0
5.976886137E0,-3.290131316E-2,-9.600004196E0,-2.569293261E0
5.982441137E0,-9.990034252E-2,-9.616155624E0,-2.606980324E0
5.987996137E0,-1.842473447E-1,-9.640682220E0,-2.626122952E0
5.993551137E0,-2.243271172E-1,-9.681958199E0,-2.647658348E0
5.999106137E0,-2.452643216E-1,-9.725028992E0,-2.669791937E0
6.004661137E0,-2.596212626E-1,-9.758528709E0,-2.691327333E0
6.010216137E0,-2.727817893E-1,-9.773484230E0,-2.691327333E0
6.015771137E0,-2.745763958E-1,-9.759725571E0,-2.669791937E0
6.021326137E0,-2.865405083E-1,-9.749555588E0,-2.645863533E0
6.026881137E0,-3.098705411E-1,-9.732806206E0,-2.615355253E0
6.032436137E0,-3.224328458E-1,-9.695118904E0,-2.587239504E0
6.037991137E0,-3.026920557E-1,-9.663414001E0,-2.564507723E0
6.043546137E0,-2.440679073E-1,-9.620942116E0,-2.492124796E0
6.049101137E0,-1.531406492E-1,-9.594022751E0,-2.388635159E0
6.054656137E0,-5.144568533E-2,-9.564111710E0,-2.252842426E0
6.060211137E0,5.802594870E-2,-9.566504478E0,-2.095514536E0
6.065766137E0,1.567298770E-1,-9.564710617E0,-1.920240164E0
6.071321137E0,2.847459018E-1,-9.568299294E0,-1.775474429E0
6.076876137E0,4.893322289E-1,-9.582057953E0,-1.611566067E0
6.082431137E0,6.640082598E-1,-9.577870369E0,-1.459621787E0
6.087986137E0,7.926225066E-1,-9.585049629E0,-1.339382529E0
6.093541137E0,9.242277741E-1,-9.605388641E0,-1.271785259E0
6.099096137E0,1.080957651E0,-9.641280174E0,-1.245464206E0
6.104651137E0,1.410568953E0,-9.720243454E0,-1.216152072E0
6.110206137E0,1.605584025E0,-9.755537987E0,-1.187438250E0
6.115761137E0,1.755135417E0,-9.785448074E0,-1.183848977E0
6.121316137E0,1.895713687E0,-9.815358162E0,-1.167099237E0
6.126871137E0,2.033301115E0,-9.805787086E0,-1.127617717E0
6.132426137E0,2.178066730E0,-9.791430473E0,-1.116251707E0
6.137981137E0,2.304886341E0,-9.748359680E0,-1.094118118E0
6.143536137E0,2.347358942E0,-9.710074425E0,-1.099501967E0
6.149091137E0,2.301297188E0,-9.650253296E0,-1.143171072E0
6.154646137E0,2.239083767E0,-9.584450722E0,-1.162313581E0
6.160201137E0,2.234896421E0,-9.521639824E0,-1.133001566E0
6.165756137E0,2.282752752E0,-9.467203140E0,-1.079761267E0
6.171311137E0,2.170888424E0,-9.428917885E0,-1.041476011E0
6.176866137E0,1.987837434E0,-9.381659508E0,-9.511470199E-1
6.182421137E0,1.654038668E0,-9.216554642E0,-6.269195080E-1
6.187976137E0,1.560120344E0,-9.289535522E0,-5.186443329E-1
6.193531137E0,1.524227977E0,-9.434899330E0,-5.377869010E-1
6.199086137E0,1.421336651E0,-9.482755661E0,-4.785645306E-1
6.204641137E0,1.244866014E0,-9.464810371E0,-3.409772217E-1
6.210196137E0,1.058225870E0,-9.413364410E0,-1.740778536E-1
6.215751137E0,8.189435601E-1,-9.373882294E0,3.708875179E-2
6.221306137E0,5.341976285E-1,-9.394221306E0,2.865405083E-1
6.226861137E0,3.242274821E-1,-9.412167549E0,5.018945336E-1
6.232416137E0,1.507478207E-1,-9.445069313E0,6.867401004E-1
6.237971137E0,-1.196411345E-2,-9.501898766E0,8.596215248E-1
6.243526137E0,-1.417747438E-1,-9.571290970E0,1.031904817E0
6.249081137E0,-2.470589429E-1,-9.607182503E0,1.153938770E0
6.254636137E0,-2.279163599E-1,-9.680164337E0,1.250848055E0
6.260191137E0,-2.135594189E-1,-9.723235130E0,1.314856052E0
6.265746137E0,-2.315055877E-1,-9.756135941E0,1.288534999E0
6.271301137E0,-1.854437590E-1,-9.792626381E0,1.168893814E0
6.276856137E0,-9.810572863E-2,-9.879964828E0,1.019940615E0
6.282411137E0,-2.811566554E-2,-9.975079536E0,8.859425783E-1
6.287966137E0,1.357926875E-1,-1.006660461E1,7.776673436E-1
6.293521137E0,2.039881349E-1,-1.018205833E1,6.885347366E-1
6.299076137E0,3.074777126E-1,-1.027717304E1,6.227321029E-1
6.304631137E0,3.744767308E-1,-1.032622623E1,5.748756528E-1
6.310186137E0,3.415754437E-1,-1.027119160E1,5.838487148E-1
6.315741137E0,4.552344978E-1,-1.022154045E1,5.581258535E-1
6.321296137E0,5.587241054E-1,-1.012164021E1,4.217349887E-1
6.326851137E0,5.952146053E-1,-9.982257843E0,1.818545163E-1
6.332406137E0,4.929214716E-1,-9.871589661E0,9.690931439E-2
6.337961137E0,2.967100143E-1,-9.818947792E0,1.369891018E-1
6.343516137E0,3.098705411E-1,-9.789037704E0,1.322034448E-1
6.349071137E0,1.399801224E-1,-9.696315765E0,1.716850251E-1
6.354626137E0,5.503492057E-2,-9.613164902E0,2.937189937E-1
6.360181137E0,-5.383851007E-3,-9.555138588E0,4.277170599E-1
6.365736137E0,-4.187439568E-3,-9.532406807E0,5.467599630E-1
6.371291137E0,-1.758724600E-1,-9.541978836E0,6.323033571E-1
6.376846137E0,-3.762713671E-1,-9.551549911E0,6.646065116E-1
6.382401137E0,-6.209374666E-1,-9.576674461E0,7.070791125E-1
6.387956137E0,-1.266401410E0,-9.650852203E0,1.158126116E0
6.393511137E0,-1.587039590E0,-9.736993790E0,1.483550072E0
6.399066137E0,-1.427318692E0,-9.856635094E0,1.468594909E0
6.404621137E0,-1.274178028E0,-1.000798035E1,1.313659668E0
6.410176137E0,-1.171286702E0,-1.009352398E1,9.421738982E-1
6.415731137E0,-1.341775298E0,-1.021316528E1,7.770691514E-1
6.421286137E0,-1.510469317E0,-1.036032391E1,6.897311211E-1
6.426841137E0,-1.576870084E0,-1.047517967E1,6.173482537E-1
6.432396137E0,-1.799402595E0,-1.063250732E1,7.363911867E-1
6.437951137E0,-2.017747641E0,-1.075035381E1,9.858429432E-1
6.443506137E0,-2.201995134E0,-1.080419254E1,1.278365493E0
6.449061137E0,-2.237887383E0,-1.079821014E1,1.561316729E0
6.454616137E0,-2.090728760E0,-1.076830006E1,1.794616938E0
6.460171137E0,-1.879562140E0,-1.068036366E1,1.905285001E0
6.465726137E0,-1.607378602E0,-1.054816055E1,1.945364833E0
6.471281137E0,-1.331605792E0,-1.039382362E1,1.954936147E0
6.476836137E0,-1.097707391E0,-1.023828983E1,1.944766641E0
6.482391137E0,-9.230313301E-1,-1.008694363E1,1.981855392E0
6.487946137E0,-7.782655358E-1,-9.952945709E0,1.985444546E0
6.493501137E0,-6.813562512E-1,-9.809974670E0,1.961516380E0
6.499056137E0,-5.886343718E-1,-9.702297211E0,1.896311998E0
6.504611137E0,-5.084748268E-1,-9.594620705E0,1.796411633E0
6.510166137E0,-4.540380836E-1,-9.494720459E0,1.698305845E0
6.515721137E0,-4.169493318E-1,-9.417551994E0,1.596610904E0
6.521276137E0,-3.326023519E-1,-9.336793900E0,1.475175142E0
6.526831137E0,-2.219343036E-1,-9.268598557E0,1.328016520E0
6.532386137E0,-8.913264424E-2,-9.195018768E0,1.143171072E0
6.537941137E0,7.178468257E-2,-9.123832703E0,9.140582681E-1
6.543496137E0,1.794617027E-1,-9.031708717E0,6.963114142E-1
6.549051137E0,2.937189937E-1,-8.946763992E0,4.749752879E-1
6.554606137E0,4.277170599E-1,-8.924032211E0,2.225325108E-1
6.560161137E0,4.995017350E-1,-8.858229637E0,-6.580262445E-3
6.565716137E0,5.509474277E-1,-8.773283958E0,-1.860419661E-1
6.571271137E0,5.551348329E-1,-8.670392990E0,-3.326023519E-1
6.576826137E0,5.102694035E-1,-8.588438988E0,-4.875376225E-1
6.582381137E0,4.564309120E-1,-8.495717049E0,-5.425725579E-1
6.587936137E0,4.576273263E-1,-8.397012711E0,-5.569294691E-1
6.593491137E0,4.612165689E-1,-8.317451477E0,-5.581258535E-1
6.599046137E0,5.012963414E-1,-8.258827209E0,-5.802595019E-1
6.604601137E0,5.126622319E-1,-8.228917122E0,-6.179464459E-1
6.610156137E0,6.394818425E-1,-8.234899521E0,-6.245267391E-1
6.615711137E0,6.843472719E-1,-8.206783295E0,-5.533402562E-1
6.621266137E0,6.119644046E-1,-8.215756416E0,-4.360919297E-1
6.626821137E0,6.203392744E-1,-8.257032394E0,-2.075773627E-1
6.632376137E0,5.192425251E-1,-8.359326363E0,3.230310604E-2
6.637931137E0,6.245267391E-1,-8.568697929E0,4.151547253E-1
6.643486137E0,6.640082598E-1,-8.755337715E0,7.663014531E-1
6.649041137E0,6.981059909E-1,-8.961718559E0,1.075573802E0
6.654596137E0,6.765705943E-1,-9.127422333E0,1.351346612E0
6.660151137E0,8.931210637E-1,-9.281759262E0,1.579262972E0
6.665706137E0,1.164706469E0,-9.449256897E0,1.643869162E0
6.671261137E0,1.314257860E0,-9.693922997E0,1.492523074E0
6.676816137E0,1.217348576E0,-9.973284721E0,1.278963685E0
6.682371137E0,9.056833982E-1,-1.034536839E1,1.057029366E0
6.687926137E0,5.252245665E-1,-1.082393360E1,9.032905698E-1
6.693481137E0,7.716853172E-2,-1.135274696E1,8.793623447E-1
6.699036137E0,-4.205385745E-1,-1.183131123E1,9.499505758E-1
6.704591137E0,-9.553344250E-1,-1.219920826E1,1.066002488E0
6.710146137E0,-1.403390527E0,-1.247019482E1,1.196411371E0
6.715701137E0,-1.799402595E0,-1.254736328E1,1.184447169E0
6.721256137E0,-2.078166485E0,-1.290927792E1,1.139581800E0
6.726811137E0,-2.071586132E0,-1.298584843E1,1.133599758E0
6.732366137E0,-1.939382792E0,-1.283270741E1,1.179063320E0
6.737921137E0,-1.740180254E0,-1.252702427E1,1.266999602E0
6.743476137E0,-1.510469317E0,-1.209512043E1,1.362114310E0
6.749031137E0,-1.317248821E0,-1.155733299E1,1.543968797E0
6.754586137E0,-1.374078393E0,-1.094178009E1,1.728216171E0
6.760141137E0,-1.705484390E0,-1.036510944E1,1.792224169E0
6.765696137E0,-1.921436548E0,-9.929615974E0,1.637887120E0
6.771251137E0,-1.799402595E0,-9.610174179E0,1.265205026E0
6.776806137E0,-1.387238979E0,-9.393025398E0,7.686942816E-1
6.782361137E0,-9.571290612E-1,-9.248857498E0,2.470589429E-1
6.787916137E0,-6.454638839E-1,-9.078369141E0,-2.548356056E-1
6.793471137E0,-4.654040039E-1,-8.900702477E0,-7.166503668E-1
6.799026137E0,-3.577269912E-1,-8.729017258E0,-1.118046403E0
6.804581137E0,-2.333002090E-1,-8.608179092E0,-1.430309772E0
6.810136137E0,-1.519442350E-1,-8.520243645E0,-1.682154298E0
6.815691137E0,-3.110669367E-2,-8.458029747E0,-1.849053741E0
6.821246137E0,2.273181453E-2,-8.463413239E0,-1.934597135E0
6.826801137E0,7.956135273E-2,-8.497511864E0,-1.974676847E0
6.832356137E0,1.519442350E-1,-8.555537224E0,-1.969891191E0
6.837911137E0,2.470589429E-1,-8.642276764E0,-1.960918188E0
6.843466137E0,3.708875179E-1,-8.766703606E0,-1.941775560E0
6.849021137E0,4.618147612E-1,-8.912666321E0,-1.880758643E0
6.854576137E0,5.377869010E-1,-9.090332985E0,-1.825125456E0
6.860131137E0,5.449653864E-1,-9.271589279E0,-1.777867198E0
6.865686137E0,4.731806815E-1,-9.486345291E0,-1.727617979E0
6.871241137E0,4.127618968E-1,-9.825528145E0,-1.608574986E0
6.876796137E0,2.883351147E-1,-1.007438183E1,-1.409372568E0
6.882351137E0,1.525424421E-1,-1.025683403E1,-1.199402332E0
6.887906137E0,3.529413417E-2,-1.037109184E1,-9.565308690E-1
6.893461137E0,-1.453639716E-1,-1.036570740E1,-7.130611539E-1
6.899016137E0,-2.446661144E-1,-1.035494041E1,-4.851447940E-1
6.904571137E0,-2.919243574E-1,-1.031785107E1,-2.823530734E-1
6.910126137E0,-2.751746178E-1,-1.021555805E1,-2.811566554E-2
6.915681137E0,-2.093719840E-1,-1.010189915E1,2.512463629E-1
6.921236137E0,-7.657032460E-2,-9.950552940E0,5.401797295E-1
6.926791137E0,1.441675574E-1,-9.789635658E0,9.056833982E-1
6.932346137E0,3.445664644E-1,-9.580862045E0,1.149153113E0
6.937901137E0,6.610172391E-1,-9.608977318E0,1.395015597E0
6.943456137E0,9.116654396E-1,-9.623334885E0,1.535593987E0
6.949011137E0,1.109671474E0,-9.688538551E0,1.577468276E0
6.954566137E0,1.217348576E0,-9.746564865E0,1.512263894E0
6.960121137E0,1.153340459E0,-9.809974670E0,1.325623751E0
6.965676137E0,1.029511929E0,-9.826126099E0,9.643075466E-1
6.971231137E0,9.427721500E-1,-9.844670296E0,4.791627228E-1
6.976786137E0,9.188438654E-1,-9.873982430E0,-4.486542568E-2
6.982341137E0,9.272187948E-1,-9.923633575E0,-5.228317380E-1
6.987896137E0,9.116654396E-1,-9.950552940E0,-9.427721500E-1
6.993451137E0,8.536394835E-1,-9.966106415E0,-1.279561877E0
6.999006137E0,7.615157962E-1,-9.966106415E0,-1.550549030E0
7.004561137E0,6.897311211E-1,-9.934999466E0,-1.779063582E0
7.010116137E0,6.263213158E-1,-9.869196892E0,-1.948953986E0
7.015671137E0,5.647061467E-1,-9.781260490E0,-2.046461582E0
7.021226137E0,5.024927258E-1,-9.704092026E0,-2.039283037E0
7.026781137E0,4.773681164E-1,-9.643074989E0,-1.981257200E0
7.032336137E0,4.504488707E-1,-9.588638306E0,-1.850250125E0
7.037891137E0,4.271188378E-1,-9.534201622E0,-1.722832322E0
7.043446137E0,4.031906128E-1,-9.476774216E0,-1.588834286E0
7.049001137E0,3.882354796E-1,-9.450452805E0,-1.453639746E0
7.054556137E0,3.655036688E-1,-9.427123070E0,-1.328614831E0
7.060111137E0,3.672982752E-1,-9.438488960E0,-1.195813060E0
7.065666137E0,3.810569942E-1,-9.443274498E0,-1.066002488E0
7.071221137E0,3.702892959E-1,-9.459425926E0,-9.511470199E-1
7.076776137E0,3.559323549E-1,-9.478569031E0,-8.530412912E-1
7.082331137E0,3.134597540E-1,-9.540781975E0,-7.812566161E-1
7.087886137E0,2.512463629E-1,-9.617950439E0,-7.184450030E-1
7.093441137E0,1.830509305E-1,-9.680762291E0,-6.622136831E-1
7.098996137E0,1.106680483E-1,-9.746564865E0,-6.071787477E-1
7.104551137E0,8.793623000E-2,-9.838089943E0,-5.886343718E-1
7.110106137E0,3.230310604E-2,-9.937392235E0,-5.240281820E-1
7.115661137E0,-1.196411345E-2,-1.001815033E1,-4.803591371E-1
7.121216137E0,-5.742774159E-2,-1.009292603E1,-4.325026870E-1
7.126771137E0,-1.088734269E-1,-1.015214825E1,-3.900300860E-1
7.132326137E0,-1.645065546E-1,-1.017308521E1,-3.427718580E-1
7.137881137E0,-1.651047617E-1,-1.016949654E1,-2.943171859E-1
7.143436137E0,-1.208375469E-1,-1.013300610E1,-2.709871531E-1
7.148991137E0,-2.392822690E-2,-1.009292603E1,-2.506481707E-1
7.154546137E0,1.232303679E-1,-1.002293587E1,-2.297109663E-1
7.160101137E0,3.068794906E-1,-9.934999466E0,-2.344966233E-1
7.165656137E0,4.809573591E-1,-9.836296082E0,-2.913261652E-1
7.171211137E0,6.478567123E-1,-9.771689415E0,-3.565305769E-1
7.176766137E0,7.776673436E-1,-9.708279610E0,-4.438686073E-1
7.182321137E0,8.853443861E-1,-9.671789169E0,-5.431707501E-1
7.187876137E0,9.421738982E-1,-9.632308006E0,-6.358926296E-1
7.193431137E0,9.541380405E-1,-9.620343208E0,-7.172485590E-1
7.198986137E0,9.577272534E-1,-9.583852768E0,-7.962117195E-1
7.204541137E0,9.696913958E-1,-9.565308571E0,-8.614161611E-1
7.210096137E0,9.780662656E-1,-9.550353050E0,-9.122636318E-1
7.215651137E0,9.816554785E-1,-9.567103386E0,-9.655039310E-1
7.221206137E0,9.583254457E-1,-9.595218658E0,-1.003789067E0
7.226761137E0,9.427721500E-1,-9.650852203E0,-1.024128079E0
7.232316137E0,9.014959335E-1,-9.714859962E0,-1.003190875E0
7.237871137E0,8.626125455E-1,-9.788438797E0,-9.260223508E-1
7.243426137E0,8.368897438E-1,-9.844072342E0,-8.225327730E-1
7.248981137E0,8.003991842E-1,-9.866804123E0,-7.058826685E-1
7.254536137E0,7.890332937E-1,-9.835099220E0,-5.545366406E-1
7.260091137E0,7.770691514E-1,-9.761520386E0,-3.990031779E-1
7.265646137E0,7.932206988E-1,-9.710074425E0,-2.602194548E-1
7.271201137E0,7.172485590E-1,-9.658628464E0,-1.196411327E-1
7.276756137E0,6.287141442E-1,-9.615557671E0,-2.392822644E-3
7.282311137E0,5.497509837E-1,-9.656833649E0,1.052841991E-1
7.287866137E0,5.144568682E-1,-9.649057388E0,1.728814393E-1
7.293421137E0,4.971089065E-1,-9.694520950E0,2.087737769E-1
7.298976137E0,4.989035130E-1,-9.759725571E0,2.350948304E-1
7.304531137E0,5.258227587E-1,-9.829715729E0,2.171486616E-1
7.310086137E0,5.401797295E-1,-9.907482147E0,1.471585929E-1
7.315641137E0,6.299105883E-1,-1.002054310E1,5.682953820E-2
7.321196137E0,7.046862841E-1,-1.009232807E1,-4.187439755E-2
7.326751137E0,7.932206988E-1,-1.012343407E1,-1.651047617E-1
7.332306137E0,8.859425783E-1,-1.012642574E1,-2.961117923E-1
7.337861137E0,9.906286001E-1,-1.008395290E1,-4.133601189E-1
7.343416137E0,1.091725349E0,-1.001456070E1,-5.108676553E-1
7.348971137E0,1.238285661E0,-9.905089378E0,-5.916253924E-1
7.354526137E0,1.391426325E0,-9.798608780E0,-6.616154313E-1
7.360081137E0,1.540379524E0,-9.701699257E0,-7.345965505E-1
7.365636137E0,1.670788407E0,-9.633503914E0,-8.165507317E-1
7.371191137E0,1.780260086E0,-9.586843491E0,-9.158528447E-1
7.376746137E0,1.820937991E0,-9.559925079E0,-1.009172916E0
7.382301137E0,1.779661894E0,-9.538987160E0,-1.083350420E0
7.387856137E0,1.640878081E0,-9.522237778E0,-1.130010486E0
7.393411137E0,1.442273855E0,-9.530612946E0,-1.133599758E0
7.398966137E0,1.236491084E0,-9.539586067E0,-1.104885817E0
7.404521137E0,1.037886858E0,-9.558130264E0,-1.039083242E0
7.410076137E0,8.632107973E-1,-9.582656860E0,-9.990034699E-1
7.415631137E0,7.052844763E-1,-9.584450722E0,-9.403793216E-1
7.421186137E0,5.084748268E-1,-9.565906525E0,-8.787640929E-1
7.426741137E0,3.798605800E-1,-9.605388641E0,-8.081758618E-1
7.432296137E0,2.638086975E-1,-9.676574707E0,-7.244270444E-1
7.437851137E0,1.076770201E-1,-9.732806206E0,-6.388836503E-1
7.443406137E0,-9.212367237E-2,-9.792626381E0,-5.760720372E-1
7.448961137E0,-2.380858511E-1,-9.838688850E0,-5.198407173E-1
7.454516137E0,-2.913261652E-1,-9.902098656E0,-4.917250574E-1
7.460071137E0,-3.445664644E-1,-9.930213928E0,-5.054838061E-1
7.465626137E0,-3.577269912E-1,-9.944570541E0,-5.443671346E-1
7.471181137E0,-3.421736360E-1,-9.979267120E0,-5.862415433E-1
7.476736137E0,-3.188436031E-1,-1.001037312E1,-6.317051649E-1
7.482291137E0,-2.470589429E-1,-1.002413273E1,-6.538388133E-1
7.487846137E0,-1.716850251E-1,-1.000259686E1,-6.795616150E-1
7.493401137E0,-7.896314561E-2,-9.952945709E0,-6.831508875E-1
7.498956137E0,2.811566554E-2,-9.868598938E0,-7.292127013E-1
7.504511137E0,1.070788130E-1,-9.769296646E0,-7.339983582E-1
7.510066137E0,1.333998591E-1,-9.670592308E0,-7.058826685E-1
7.515621137E0,1.441675574E-1,-9.547362328E0,-6.675975323E-1
7.521176137E0,1.333998591E-1,-9.447462082E0,-6.245267391E-1
7.526731137E0,1.453639716E-1,-9.399007797E0,-6.035895348E-1
7.532286137E0,1.160518974E-1,-9.373284340E0,-5.868397355E-1
7.537841137E0,9.391828626E-2,-9.393025398E0,-6.017948985E-1
7.543396137E0,7.537391037E-2,-9.449256897E0,-6.334998012E-1
7.548951137E0,7.896314561E-2,-9.577870369E0,-6.975077987E-1
7.554506137E0,8.135596663E-2,-9.737591743E0,-7.776673436E-1
7.560061137E0,8.793623000E-2,-9.894321442E0,-8.608179688E-1
7.565616137E0,9.092725813E-2,-1.004447079E1,-9.260223508E-1
7.571171137E0,1.028913707E-1,-1.018146038E1,-9.649057388E-1
7.576726137E0,1.902294010E-1,-1.027418232E1,-9.559326172E-1
7.582281137E0,3.050848842E-1,-1.028435135E1,-9.110672474E-1
7.587836137E0,4.295116663E-1,-1.027597713E1,-8.769695163E-1
7.593391137E0,5.700899959E-1,-1.022632599E1,-8.410771489E-1
7.598946137E0,6.652047038E-1,-1.010309505E1,-8.159525394E-1
7.604501137E0,7.136593461E-1,-9.914062500E0,-8.189435601E-1
7.610056137E0,7.932206988E-1,-9.733404160E0,-8.422735929E-1
7.615611137E0,8.356932998E-1,-9.583254814E0,-8.883354068E-1
7.621166137E0,8.865407705E-1,-9.491130829E0,-9.481559992E-1
7.626721137E0,8.955138922E-1,-9.452845573E0,-1.011565804E0
7.632276137E0,8.261220455E-1,-9.427123070E0,-1.088734269E0
7.637831137E0,8.105686903E-1,-9.498908043E0,-1.133001566E0
7.643386137E0,7.417750359E-1,-9.564111710E0,-1.164706469E0
7.648941137E0,6.783652306E-1,-9.654440880E0,-1.194018483E0
7.654496137E0,5.784648657E-1,-9.748957634E0,-1.216750264E0
7.660051137E0,4.528416991E-1,-9.814162254E0,-1.222732425E0
7.665606137E0,3.272185028E-1,-9.826126099E0,-1.243669510E0
7.671161137E0,2.446661144E-1,-9.821938515E0,-1.273579836E0
7.676716137E0,1.896311939E-1,-9.793225288E0,-1.336391449E0
7.682271137E0,1.890329868E-1,-9.769894600E0,-1.409970760E0
7.687826137E0,1.998006850E-1,-9.742377281E0,-1.480558991E0
7.693381137E0,2.003988922E-1,-9.699306488E0,-1.543370605E0
7.698936137E0,2.033899277E-1,-9.650852203E0,-1.594218135E0
7.704491137E0,2.249253243E-1,-9.611968994E0,-1.631306887E0
7.710046137E0,2.685943544E-1,-9.560523033E0,-1.645065546E0
7.715601137E0,3.475574851E-1,-9.512666702E0,-1.642074585E0
7.721156137E0,4.486542344E-1,-9.463015556E0,-1.641476393E0
7.726711137E0,5.557330847E-1,-9.421140671E0,-1.647458434E0
7.732266137E0,6.430711150E-1,-9.357730865E0,-1.674377680E0
7.737821137E0,7.256234884E-1,-9.314660072E0,-1.696511269E0
7.743376137E0,8.291130662E-1,-9.293125153E0,-1.709671736E0
7.748931137E0,9.445667267E-1,-9.294919968E0,-1.706680775E0
7.754486137E0,1.049252748E0,-9.277571678E0,-1.709671736E0
7.760041137E0,1.143171072E0,-9.287142754E0,-1.714457393E0
7.765596137E0,1.213161111E0,-9.311669350E0,-1.713859200E0
7.771151137E0,1.278365493E0,-9.348159790E0,-1.715653777E0
7.776706137E0,1.314257860E0,-9.386445045E0,-1.713859200E0
7.782261137E0,1.343569875E0,-9.469595909E0,-1.694716692E0
7.787816137E0,1.405185103E0,-9.558728218E0,-1.681556106E0
7.793371137E0,1.462612867E0,-9.624530792E0,-1.662413478E0
7.798926137E0,1.490728498E0,-9.657432556E0,-1.649253011E0
7.804481137E0,1.533799291E0,-9.678369522E0,-1.645663738E0
7.810036137E0,1.567298889E0,-9.675378799E0,-1.648056626E0
7.815591137E0,1.533799291E0,-9.679565430E0,-1.643869162E0
7.821146137E0,1.494317770E0,-9.686145782E0,-1.642672777E0
7.826701137E0,1.428515077E0,-9.690931320E0,-1.635494232E0
7.832256137E0,1.330409408E0,-9.669994354E0,-1.630708575E0
7.837811137E0,1.304686546E0,-9.691530228E0,-1.606780410E0
7.843366137E0,1.266999602E0,-9.727422714E0,-1.572084427E0
7.848921137E0,1.219741344E0,-9.748957634E0,-1.507478237E0
7.854476137E0,1.150947690E0,-9.790233612E0,-1.456630826E0
7.860031137E0,1.064806104E0,-9.835697174E0,-1.397408366E0
7.865586137E0,9.738788009E-1,-9.863214493E0,-1.329213023E0
7.871141137E0,8.805587292E-1,-9.878170013E0,-1.270588875E0
7.876696137E0,7.806583643E-1,-9.875777245E0,-1.175474167E0
7.882251137E0,6.999006271E-1,-9.878767967E0,-1.088734269E0
7.887806137E0,6.023930907E-1,-9.869196892E0,-1.034297585E0
7.893361137E0,5.377869010E-1,-9.896116257E0,-9.996016622E-1
7.898916137E0,4.959124923E-1,-9.911071777E0,-9.708877802E-1
7.904471137E0,4.630111754E-1,-9.958329201E0,-9.876375198E-1
7.910026137E0,4.480560422E-1,-9.992427826E0,-1.050449133E0
7.915581137E0,4.695914388E-1,-1.002293587E1,-1.132403374E0
7.921136137E0,5.575276613E-1,-1.002712345E1,-1.195214868E0
7.926691137E0,6.580262184E-1,-9.989436150E0,-1.260419369E0
7.932246137E0,7.734799385E-1,-9.928419113E0,-1.319043517E0
7.937801137E0,7.752745152E-1,-9.817750931E0,-1.383649707E0
7.943356137E0,7.357929349E-1,-9.688538551E0,-1.429711580E0
7.948911137E0,7.190431952E-1,-9.563513756E0,-1.478166223E0
7.954466137E0,7.405785918E-1,-9.476176262E0,-1.510469317E0
7.960021137E0,7.645068169E-1,-9.435498238E0,-1.542772412E0
7.965576137E0,7.459624410E-1,-9.400203705E0,-1.610967875E0
7.971131137E0,7.453642488E-1,-9.418747902E0,-1.680957913E0
7.976686137E0,7.220342159E-1,-9.439086914E0,-1.739582062E0
7.982241137E0,7.046862841E-1,-9.472586632E0,-1.789831281E0
7.987796137E0,6.963114142E-1,-9.495318413E0,-1.846660852E0
7.993351137E0,6.903293133E-1,-9.530014038E0,-1.908276081E0
7.998906137E0,6.777670383E-1,-9.580862045E0,-1.955534339E0
8.004461137E0,6.658028960E-1,-9.637691498E0,-1.980060697E0
8.010016137E0,6.729813814E-1,-9.658030510E0,-1.988435626E0
8.015571137E0,7.501499057E-1,-9.589835167E0,-1.832303882E0
8.021126137E0,1.818545163E-1,-9.354740143E0,-1.865803480E0
8.026681137E0,4.091726840E-1,-9.591629982E0,-1.889731646E0
8.032236137E0,7.489534616E-1,-9.684949875E0,-1.814955950E0
8.037791137E0,9.714859724E-1,-9.744770050E0,-1.758724689E0
8.043346137E0,1.027119160E0,-9.768698692E0,-1.713261008E0
8.048901137E0,8.823533654E-1,-9.741779327E0,-1.681556106E0
8.054456137E0,6.490531564E-1,-9.652647018E0,-1.688136339E0
8.060011137E0,5.096712112E-1,-9.576674461E0,-1.690529227E0
8.065566137E0,5.132604837E-1,-9.527023315E0,-1.669592023E0
8.071121137E0,6.263213158E-1,-9.558728218E0,-1.613958836E0
8.076676137E0,7.441678643E-1,-9.631111145E0,-1.565504193E0
8.082231137E0,8.075776696E-1,-9.689735413E0,-1.511665702E0
8.087786137E0,7.956135273E-1,-9.702297211E0,-1.496710539E0
8.093341137E0,7.668996453E-1,-9.695118904E0,-1.502094388E0
8.098896137E0,7.812566161E-1,-9.655039787E0,-1.530808330E0
8.104451137E0,8.309076428E-1,-9.611370087E0,-1.563709617E0
8.110006137E0,8.871390224E-1,-9.571290970E0,-1.587039590E0
8.115561137E0,9.337990284E-1,-9.517452240E0,-1.616351724E0
8.121116137E0,9.750752449E-1,-9.465408325E0,-1.663011789E0
8.126671137E0,1.024726272E0,-9.434301376E0,-1.676172256E0
8.132226137E0,1.091127157E0,-9.386445045E0,-1.683948994E0
8.137781137E0,1.139581800E0,-9.339784622E0,-1.689931035E0
8.143336137E0,1.202393413E0,-9.305686951E0,-1.706082582E0
8.148891137E0,1.238285661E0,-9.280562401E0,-1.718644857E0
8.154446137E0,1.269990563E0,-9.285347939E0,-1.744367719E0
8.160001137E0,1.296909928E0,-9.338588715E0,-1.785643935E0
8.165556137E0,1.298704505E0,-9.394820213E0,-1.853839397E0
8.171111137E0,1.324427366E0,-9.467801094E0,-1.922633052E0
8.176666137E0,1.325623751E0,-9.543174744E0,-1.998006940E0
8.182221137E0,1.288534999E0,-9.615557671E0,-2.060818434E0
8.187776137E0,1.260419369E0,-9.700503349E0,-2.120040894E0
8.193331137E0,1.202991605E0,-9.765109062E0,-2.160120726E0
8.198886137E0,1.145563841E0,-9.851250648E0,-2.183450699E0
8.204441137E0,1.091127157E0,-9.917053223E0,-2.179861546E0
8.209996137E0,1.022931695E0,-9.958329201E0,-2.169093609E0
8.215551137E0,9.894321561E-1,-9.972088814E0,-2.157129526E0
8.221106137E0,9.649057388E-1,-9.979865074E0,-2.126621008E0
8.226661137E0,9.702895880E-1,-9.970293999E0,-2.078166485E0
8.232216137E0,9.475577474E-1,-9.931410789E0,-2.023131609E0
8.237771137E0,9.164510965E-1,-9.903294563E0,-1.941775560E0
8.243326137E0,9.074779749E-1,-9.891928673E0,-1.822732687E0
8.248881137E0,8.967102766E-1,-9.852447510E0,-1.691127419E0
8.254436137E0,8.763712645E-1,-9.809376717E0,-1.570888042E0
8.259991137E0,8.554341197E-1,-9.751350403E0,-1.458425403E0
8.265546137E0,8.524430394E-1,-9.680164337E0,-1.355534077E0
8.271101137E0,8.662018180E-1,-9.610174179E0,-1.261017561E0
8.276656137E0,8.991031051E-1,-9.556933403E0,-1.195813060E0
8.282211137E0,9.481559992E-1,-9.518648148E0,-1.135394335E0
8.287766137E0,9.954141974E-1,-9.479166985E0,-1.109073281E0
8.293321137E0,1.062413216E0,-9.440881729E0,-1.092323542E0
8.298876137E0,1.122832060E0,-9.400203705E0,-1.095314622E0
8.304431137E0,1.192223907E0,-9.361320496E0,-1.113858938E0
8.309986137E0,1.232303619E0,-9.341579437E0,-1.159920812E0
8.315541137E0,1.255633712E0,-9.354142189E0,-1.212562919E0
8.321096137E0,1.284945726E0,-9.409774780E0,-1.310668588E0
8.326651137E0,1.304088354E0,-9.489336014E0,-1.400997639E0
8.332206137E0,1.311266780E0,-9.583254814E0,-1.512263894E0
8.337761137E0,1.315454245E0,-9.672387123E0,-1.601396561E0
8.343316137E0,1.288534999E0,-9.762716293E0,-1.667199135E0
8.348871137E0,1.250249863E0,-9.885348320E0,-1.710269928E0
8.354426137E0,1.217946768E0,-9.992427826E0,-1.725225091E0
8.359981137E0,1.179661512E0,-1.005763149E1,-1.707278967E0
8.365536137E0,1.140778184E0,-1.007438183E1,-1.666002750E0
8.371091137E0,1.121037364E0,-1.004088211E1,-1.620539188E0
8.376646137E0,1.088734269E0,-9.973882675E0,-1.555334687E0
8.382201137E0,1.065404296E0,-9.887741089E0,-1.506281853E0
8.387756137E0,1.049252748E0,-9.771689415E0,-1.454237938E0
8.393311137E0,1.039681435E0,-9.675378799E0,-1.400997639E0
8.398866137E0,1.044467092E0,-9.584450722E0,-1.359123230E0
8.404421137E0,1.049252748E0,-9.509077072E0,-1.330409408E0
8.409976137E0,1.022931695E0,-9.443274498E0,-1.300499082E0
8.415531137E0,9.936196208E-1,-9.388239861E0,-1.261017561E0
8.421086137E0,9.248259664E-1,-9.345767021E0,-1.238883972E0
8.426641137E0,8.506484628E-1,-9.337391853E0,-1.237089276E0
8.432196137E0,8.009973764E-1,-9.357132912E0,-1.236491084E0
8.437751137E0,7.184450030E-1,-9.420542717E0,-1.286740422E0
8.443306137E0,6.442674994E-1,-9.494720459E0,-1.373480201E0
8.448861137E0,5.874379873E-1,-9.576076508E0,-1.463211060E0
8.454416137E0,5.407779217E-1,-9.667601585E0,-1.540977836E0
8.459971137E0,4.648058116E-1,-9.745368004E0,-1.599003673E0
8.465526137E0,4.791627228E-1,-9.801599503E0,-1.643270969E0
8.471081137E0,4.881358147E-1,-9.835697174E0,-1.671984792E0
8.476636137E0,4.959124923E-1,-9.848259926E0,-1.678565025E0
8.482191137E0,4.803591371E-1,-9.831509590E0,-1.666002750E0
8.487746137E0,4.618147612E-1,-9.813564301E0,-1.659422517E0
8.493301137E0,4.881358147E-1,-9.781859398E0,-1.660020709E0
8.498856137E0,4.803591371E-1,-9.747760773E0,-1.672582984E0
8.504411137E0,4.594219327E-1,-9.728618622E0,-1.690529227E0
8.509966137E0,4.253242314E-1,-9.708877563E0,-1.719243050E0
8.515521137E0,3.780659735E-1,-9.699306488E0,-1.740180254E0
8.521076137E0,3.457628787E-1,-9.668798447E0,-1.746760488E0
8.526631137E0,3.517449200E-1,-9.621540070E0,-1.737189293E0
8.532186137E0,3.978067636E-1,-9.591629982E0,-1.701296926E0
8.537741137E0,4.576273263E-1,-9.557532310E0,-1.666600943E0
8.543296137E0,4.965106845E-1,-9.534201622E0,-1.648056626E0
8.548851137E0,5.294120312E-1,-9.525827408E0,-1.659422517E0
8.554406137E0,5.904290080E-1,-9.521040916E0,-1.688734531E0
8.559961137E0,6.592226624E-1,-9.569496155E0,-1.741376638E0
8.565516137E0,7.621139884E-1,-9.607182503E0,-1.797608018E0
8.571071137E0,8.584251404E-1,-9.647860527E0,-1.847259045E0
8.576626137E0,9.409775138E-1,-9.693922997E0,-1.871187329E0
8.582181137E0,1.018744230E0,-9.675976753E0,-1.892722726E0
8.587736137E0,1.067797065E0,-9.614361763E0,-1.908276081E0
8.593291137E0,1.118046403E0,-9.555737495E0,-1.919641972E0
8.598846137E0,1.158724308E0,-9.496515274E0,-1.903490424E0
8.604401137E0,1.189831018E0,-9.435498238E0,-1.871785522E0
8.609956137E0,1.212562919E0,-9.396614075E0,-1.823929071E0
8.615511137E0,1.232303619E0,-9.343374252E0,-1.774278045E0
8.621066137E0,1.245464206E0,-9.317052841E0,-1.713261008E0
8.626621137E0,1.272981644E0,-9.311071396E0,-1.667797327E0
8.632176137E0,1.308874011E0,-9.339784622E0,-1.636092424E0
8.637731137E0,1.347159147E0,-9.381061554E0,-1.599601984E0
8.643286137E0,1.375872970E0,-9.429515839E0,-1.596012712E0
8.648841137E0,1.398006678E0,-9.464810371E0,-1.586441398E0
8.654396137E0,1.413560033E0,-9.492327690E0,-1.575673699E0
8.659951137E0,1.418943882E0,-9.523433685E0,-1.564906001E0
8.665506137E0,1.454237938E0,-9.522237778E0,-1.580459356E0
8.671061137E0,1.482353687E0,-9.532406807E0,-1.557129383E0
8.676616137E0,1.481755376E0,-9.553344727E0,-1.532602906E0
8.682171137E0,1.523629785E0,-9.543174744E0,-1.518844128E0
8.687726137E0,1.562513232E0,-9.532406807E0,-1.524227977E0
8.693281137E0,1.581057549E0,-9.546165466E0,-1.528415442E0
8.698836137E0,1.616351724E0,-9.559925079E0,-1.572084427E0
8.704391137E0,1.591825247E0,-9.617950439E0,-1.600798368E0
8.709946137E0,1.628315806E0,-9.637093544E0,-1.607976794E0
8.715501137E0,1.696511269E0,-9.641879082E0,-1.619342685E0
8.721056137E0,1.762912035E0,-9.668798447E0,-1.604387641E0
8.726611137E0,1.811366796E0,-9.674181938E0,-1.608574986E0
8.732166137E0,1.852044702E0,-9.675976753E0,-1.616949916E0
8.737721137E0,1.891526341E0,-9.681958199E0,-1.595414519E0
8.743276137E0,1.936391711E0,-9.656833649E0,-1.549950838E0
8.748831137E0,1.978864312E0,-9.618548393E0,-1.476969719E0
8.754386137E0,1.996810555E0,-9.581459999E0,-1.389631748E0
8.759941137E0,1.992024899E0,-9.566504478E0,-1.286740422E0
8.765496137E0,1.975275040E0,-9.538987160E0,-1.147358418E0
8.771051137E0,1.925624013E0,-9.515657425E0,-9.858429432E-1
8.776606137E0,1.860419631E0,-9.504291534E0,-8.195417523E-1
8.782161137E0,1.828116536E0,-9.494720459E0,-6.658028960E-1
8.787716137E0,1.799402595E0,-9.486943245E0,-5.216353536E-1
8.793271137E0,1.789831281E0,-9.485747337E0,-3.726821244E-1
8.798826137E0,1.786840320E0,-9.519845009E0,-2.757728100E-1
8.804381137E0,1.769492388E0,-9.573683739E0,-2.045863420E-1
8.809936137E0,1.759921074E0,-9.650852203E0,-1.848455518E-1
8.815491137E0,1.726421595E0,-9.723235130E0,-2.123630047E-1
8.821046137E0,1.695314884E0,-9.775876999E0,-3.152543902E-1
8.826601137E0,1.682154298E0,-9.801001549E0,-4.307080805E-1
8.832156137E0,1.688136339E0,-9.814162254E0,-5.551348329E-1
8.837711137E0,1.702493310E0,-9.801599503E0,-6.831508875E-1
8.843266137E0,1.684547186E0,-9.776474953E0,-8.213363886E-1
8.848821137E0,1.661815286E0,-9.736394882E0,-9.900303483E-1
8.854376137E0,1.631306887E0,-9.685547829E0,-1.153938770E0
8.859931137E0,1.629512191E0,-9.629914284E0,-1.328016520E0
8.865486137E0,1.607976794E0,-9.586245537E0,-1.476969719E0
8.871041137E0,1.589432478E0,-9.562317848E0,-1.588235974E0
8.876596137E0,1.568495274E0,-9.531210899E0,-1.670190215E0
8.882151137E0,1.529013634E0,-9.531210899E0,-1.737189293E0
8.887706137E0,1.493719578E0,-9.538987160E0,-1.761715651E0
8.893261137E0,1.470987678E0,-9.564710617E0,-1.787438512E0
8.898816137E0,1.424327731E0,-9.597013474E0,-1.822134495E0
8.904371137E0,1.366301775E0,-9.593423843E0,-1.869392633E0
8.909926137E0,1.304088354E0,-9.585049629E0,-1.926820397E0
8.915481137E0,1.239482164E0,-9.569496155E0,-1.977667928E0
8.921036137E0,1.195813060E0,-9.579665184E0,-2.014756680E0
8.926591137E0,1.153938770E0,-9.574281693E0,-2.015953064E0
8.932146137E0,1.133599758E0,-9.591629982E0,-2.015354872E0
8.937701137E0,1.097707391E0,-9.585049629E0,-1.957328916E0
8.943256137E0,1.037288666E0,-9.587442398E0,-1.899302959E0
8.948811137E0,9.672985673E-1,-9.567103386E0,-1.844866276E0
8.954366137E0,8.476574421E-1,-9.533603668E0,-1.800000787E0
8.959921137E0,7.639086246E-1,-9.512666702E0,-1.734796405E0
8.965476137E0,7.178468108E-1,-9.471988678E0,-1.665404558E0
8.971031137E0,7.322037220E-1,-9.440881729E0,-1.586441398E0
8.976586137E0,7.974081635E-1,-9.401400566E0,-1.501496196E0
8.982141137E0,8.638089895E-1,-9.352347374E0,-1.413560033E0
8.987696137E0,8.931210637E-1,-9.334401131E0,-1.343569875E0
8.993251137E0,9.062815905E-1,-9.296115875E0,-1.289133191E0
8.998806137E0,9.164510965E-1,-9.322437286E0,-1.230509043E0
9.004361137E0,9.200403094E-1,-9.337990761E0,-1.198205948E0
9.009916137E0,9.433703423E-1,-9.362516403E0,-1.185643673E0
9.015471137E0,1.062413216E0,-9.398408890E0,-1.168893814E0
9.021026137E0,1.217348576E0,-9.410373688E0,-1.157527924E0
9.026581137E0,1.398604870E0,-9.433703423E0,-1.127019525E0
9.032136137E0,1.585843205E0,-9.411569595E0,-1.124028444E0
9.037691137E0,1.744965911E0,-9.351150513E0,-1.127617717E0
9.043246137E0,1.883749604E0,-9.313464165E0,-1.134796143E0
9.048801137E0,2.020140409E0,-9.281759262E0,-1.163509965E0
9.054356137E0,2.130808592E0,-9.259625435E0,-1.207179070E0
9.059911137E0,2.227119684E0,-9.293125153E0,-1.267597795E0
9.065466137E0,2.270788670E0,-9.325428009E0,-1.372882009E0
9.071021137E0,2.226521492E0,-9.343972206E0,-1.495514154E0
9.076576137E0,2.103291035E0,-9.385847092E0,-1.629512191E0
9.082131137E0,1.957328916E0,-9.421739578E0,-1.767099500E0
9.087686137E0,1.798804402E0,-9.486345291E0,-1.885544300E0
9.093241137E0,1.625923038E0,-9.533603668E0,-2.023131609E0
9.098796137E0,1.430309772E0,-9.617352486E0,-2.155334949E0
9.104351137E0,1.203589797E0,-9.729216576E0,-2.285743713E0
9.109906137E0,9.649057388E-1,-9.864411354E0,-2.431705952E0
9.115461137E0,7.513462901E-1,-1.003310490E1,-2.557329178E0
9.121016137E0,5.527420044E-1,-1.021376324E1,-2.713460922E0
9.126571137E0,4.277170599E-1,-1.043270683E1,-2.873181820E0
9.132126137E0,2.608176768E-1,-1.061874866E1,-3.057429075E0
9.137681137E0,4.905286431E-2,-1.076650524E1,-3.219542980E0
9.143236137E0,-1.447657645E-1,-1.077069283E1,-3.394817114E0
9.148791137E0,-4.689932466E-1,-1.070489025E1,-3.574278831E0
9.154346137E0,-7.788637877E-1,-1.053200912E1,-3.547359467E0
9.159901137E0,-1.505085468E0,-1.027657509E1,-3.590430260E0
9.165456137E0,-1.613360643E0,-1.035194874E1,-3.819543123E0
9.171011137E0,-1.465005636E0,-1.032024384E1,-3.823730469E0
9.176566137E0,-1.469791293E0,-1.023709393E1,-3.806382656E0
9.182121137E0,-1.490728498E0,-1.007019424E1,-3.749552965E0
9.187676137E0,-1.609771490E0,-9.873982430E0,-3.697509289E0
9.193231137E0,-1.815554142E0,-9.682557106E0,-3.653840065E0
9.198786137E0,-2.093121529E0,-9.535996437E0,-3.628715515E0
9.204341137E0,-2.119442701E0,-9.464810371E0,-3.544966698E0
9.209896137E0,-2.036292076E0,-9.400203705E0,-3.414557934E0
9.215451137E0,-2.087139606E0,-9.355338097E0,-3.300300598E0
9.221006137E0,-2.260619164E0,-9.303893089E0,-3.235096216E0
9.226561137E0,-2.446063042E0,-9.282955170E0,-3.170490026E0
9.232116137E0,-2.506481647E0,-9.262616158E0,-3.119642496E0
9.237671137E0,-2.438286304E0,-9.270991325E0,-3.014956474E0
9.243226137E0,-2.225923300E0,-9.285946846E0,-2.894119024E0
9.248781137E0,-1.922034740E0,-9.272188187E0,-2.737389088E0
9.254336137E0,-1.660618901E0,-9.205786705E0,-2.569293261E0
9.259891137E0,-1.408774376E0,-9.180064201E0,-2.392224550E0
9.265446137E0,-1.153340459E0,-9.151947975E0,-2.211566210E0
9.271001137E0,-9.014959335E-1,-9.132805824E0,-1.999203324E0
9.276556137E0,-6.418746710E-1,-9.152546883E0,-1.758724689E0
9.282111137E0,-3.972085714E-1,-9.196215630E0,-1.493121386E0
9.287666137E0,-1.956132501E-1,-9.250652313E0,-1.165304661E0
9.293221137E0,2.691925503E-2,-9.328418732E0,-8.075776696E-1
9.298776137E0,2.650051117E-1,-9.371489525E0,-4.115654826E-1
9.304331137E0,4.073780477E-1,-9.445069313E0,-7.896314561E-2
9.309886137E0,4.217349887E-1,-9.546764374E0,2.344966233E-1
9.315441137E0,3.834498227E-1,-9.661619186E0,5.288137794E-1
9.320996137E0,3.002992272E-1,-9.827920914E0,7.680960894E-1
9.326551137E0,2.452643216E-1,-9.991230965E0,1.004985452E0
9.332106137E0,2.679961324E-1,-1.015992451E1,1.163509965E0
9.337661137E0,3.421736360E-1,-1.031964588E1,1.272981644E0
9.343216137E0,4.372883439E-1,-1.047817039E1,1.299900889E0
9.348771137E0,5.174478889E-1,-1.061097240E1,1.247258782E0
9.354326137E0,5.000999570E-1,-1.070130062E1,1.082154036E0
9.359881137E0,3.966103494E-1,-1.071506023E1,8.309076428E-1
9.365436137E0,2.195414752E-1,-1.065284634E1,4.821537733E-1
9.370991137E0,3.290131316E-2,-1.057747269E1,1.214357466E-1
9.376546137E0,-1.184447184E-1,-1.044826031E1,-2.422732860E-1
9.382101137E0,-3.134597540E-1,-1.032622623E1,-5.724828243E-1
9.387656137E0,-5.521438122E-1,-1.016710377E1,-9.038887620E-1
9.393211137E0,-7.190431952E-1,-9.970891953E0,-1.240080357E0
9.398766137E0,-8.410771489E-1,-9.753743172E0,-1.536790371E0
9.404321137E0,-9.571290612E-1,-9.547362328E0,-1.850250125E0
9.409876137E0,-1.039681435E0,-9.329017639E0,-2.199003935E0
9.415431137E0,-9.996016622E-1,-9.137591362E0,-2.401197433E0
9.420986137E0,-9.828519225E-1,-8.985049248E0,-2.574079037E0
9.426541137E0,-1.040877819E0,-8.851051331E0,-2.774477959E0
9.432096137E0,-1.045065284E0,-8.794819832E0,-2.955136061E0
9.437651137E0,-1.030110121E0,-8.772686005E0,-3.078366280E0
9.443206137E0,-1.009172916E0,-8.827720642E0,-3.145365477E0
9.448761137E0,-1.025922656E0,-8.933005333E0,-3.255435228E0
9.454316137E0,-1.050449133E0,-9.023932457E0,-3.333800077E0
9.459871137E0,-1.069591761E0,-9.122636795E0,-3.356531858E0
9.465426137E0,-1.124626637E0,-9.258428574E0,-3.315255880E0
9.470981137E0,-1.133599758E0,-9.425328255E0,-3.236890793E0
9.476536137E0,-1.100100160E0,-9.610772133E0,-3.132204771E0
9.482091137E0,-1.028913736E0,-9.777072906E0,-2.990430117E0
9.487646137E0,-1.012163997E0,-9.920642853E0,-2.849851847E0
9.493201137E0,-9.924231768E-1,-1.010788059E1,-2.707478762E0
9.498756137E0,-9.714859724E-1,-1.034477043E1,-2.522035122E0
9.504311137E0,-9.475577474E-1,-1.055773163E1,-2.295913219E0
9.509866137E0,-9.098708034E-1,-1.066600704E1,-2.040479422E0
9.515421137E0,-9.068797827E-1,-1.067856884E1,-1.709073544E0
9.520976137E0,-9.445667267E-1,-1.059661484E1,-1.332203984E0
9.526531137E0,-1.022333503E0,-1.041894817E1,-9.284151793E-1
9.532086137E0,-1.077966571E0,-1.025623608E1,-5.641079545E-1
9.537641137E0,-1.162313581E0,-1.008395290E1,-2.530409992E-1
9.543196137E0,-1.237089276E0,-9.931410789E0,-3.050848842E-2
9.548751137E0,-1.312463164E0,-9.839286804E0,1.016949639E-1
9.554306137E0,-1.339980721E0,-9.799206734E0,1.369891018E-1
9.559861137E0,-1.400997639E0,-9.853045464E0,1.178465188E-1
9.565416137E0,-1.491924882E0,-9.974481583E0,6.221338734E-2
9.570971137E0,-1.618146300E0,-1.009651470E1,-5.982056609E-4
9.576526137E0,-1.763510346E0,-1.023051357E1,-8.255238086E-2
9.582081137E0,-1.931606054E0,-1.036271667E1,-1.914258152E-1
9.587636137E0,-2.143969059E0,-1.052662468E1,-2.691925466E-1
9.593191137E0,-2.393420935E0,-1.072044373E1,-3.972085714E-1
9.598746137E0,-2.696112871E0,-1.098365402E1,-5.270192027E-1
9.604301137E0,-2.980858803E0,-1.126301575E1,-6.406782866E-1
9.609856137E0,-3.166900873E0,-1.150469112E1,-8.159525394E-1
9.615411137E0,-3.453441381E0,-1.181934738E1,-9.355936646E-1
9.620966137E0,-3.547957659E0,-1.214536953E1,-9.912267923E-1
9.626521137E0,-3.491128206E0,-1.244327641E1,-1.039681435E0
9.632076137E0,-3.354737282E0,-1.269751358E1,-1.083948612E0
9.637631137E0,-3.122035265E0,-1.286501122E1,-1.080359459E0
9.643186137E0,-2.797807932E0,-1.294636726E1,-1.104287624E0
9.648741137E0,-2.740978241E0,-1.264487171E1,-1.188634634E0
9.654296137E0,-2.293520451E0,-1.263829136E1,-1.510469317E0
9.659851137E0,-1.987837434E0,-1.238883877E1,-1.819741607E0
9.665406137E0,-2.182254314E0,-1.202991581E1,-1.759921074E0
9.670961137E0,-2.525624275E0,-1.163689518E1,-1.350150228E0
9.676516137E0,-2.782254457E0,-1.131685448E1,-5.252245665E-1
9.682071137E0,-3.227319479E0,-1.107518005E1,6.909275651E-1
9.687626137E0,-4.138386726E0,-1.102313614E1,2.998805046E0
9.693181137E0,-5.048855782E0,-1.110927773E1,6.401398659E0
9.698736137E0,-5.450251579E0,-1.142393398E1,7.080362320E0
9.704291137E0,-4.774279594E0,-1.205324554E1,5.498108387E0
9.709846137E0,-3.443271875E0,-1.250967693E1,3.684946775E0
9.715401137E0,-1.999203324E0,-1.300379467E1,2.596810818E0
9.720956137E0,-5.958128572E-1,-1.350329685E1,2.122433662E0
9.726511137E0,4.983053207E-1,-1.400818157E1,1.707877159E0
9.732066137E0,1.623530149E0,-1.458664703E1,1.409970760E0
9.737621137E0,2.124228239E0,-1.475115299E1,9.720842242E-1
9.743176137E0,2.136790514E0,-1.465364552E1,4.115654826E-1
9.748731137E0,2.088335991E0,-1.436770344E1,7.537391037E-2
9.754286137E0,2.179263115E0,-1.428455257E1,-2.584248483E-1
9.759841137E0,2.362912416E0,-1.423789310E1,-6.759724021E-1
9.765396137E0,2.681756020E0,-1.417687607E1,-9.744769931E-1
9.770951137E0,2.876172781E0,-1.404467297E1,-1.333400369E0
9.776506137E0,2.756531715E0,-1.376231956E1,-1.676172256E0
9.782061137E0,2.800200701E0,-1.381615829E1,-2.043470621E0
9.787616137E0,2.711068153E0,-1.379581928E1,-2.465205431E0
9.793171137E0,2.332403898E0,-1.348056412E1,-2.909672260E0
9.798726137E0,1.983649969E0,-1.306899929E1,-3.053839922E0
9.804281137E0,1.699502230E0,-1.261914825E1,-2.978466034E0
9.809836137E0,1.099501967E0,-1.199342537E1,-2.772084951E0
9.815391137E0,7.956135273E-2,-1.137846947E1,-2.557927370E0
9.820946137E0,-1.079761267E0,-1.088674450E1,-2.717648268E0
9.826501137E0,-1.818545222E0,-1.054457092E1,-2.654238462E0
9.832056137E0,-2.361716032E0,-1.020359421E1,-2.172084808E0
9.837611137E0,-2.877369165E0,-9.946365356E0,-1.627119422E0
9.843166137E0,-3.258426189E0,-9.770493507E0,-7.908278704E-1
9.848721137E0,-3.785445452E0,-9.637093544E0,2.931207791E-2
9.854276137E0,-4.362713814E0,-9.568299294E0,8.135596663E-2
9.859831137E0,-4.957928658E0,-9.466604233E0,-5.862415582E-2
9.865386137E0,-5.199005604E0,-9.366106033E0,-2.584248483E-1
9.870941137E0,-5.127819061E0,-9.418149948E0,-3.529413342E-1
9.876496137E0,-5.132604599E0,-9.515657425E0,-6.580262184E-1
9.882051137E0,-5.338387489E0,-9.801001549E0,-9.056833982E-1
9.887606137E0,-5.044668198E0,-9.929018021E0,-7.627122402E-1
9.893161137E0,-4.578666210E0,-1.002293587E1,-3.086741269E-1
9.898716137E0,-3.083152056E0,-1.021615601E1,1.842473447E-1
9.904271137E0,-1.628315806E0,-1.017607689E1,4.612165689E-1
9.909826137E0,-1.884347796E-1,-9.893125534E0,6.305087805E-1
9.915381137E0,6.113662124E-1,-9.574879646E0,9.924231768E-1
9.920936137E0,8.177471161E-1,-9.300303459E0,1.191625714E0
9.926491137E0,1.204786181E0,-8.946763992E0,1.576870084E0
9.932046137E0,1.342971683E0,-8.614759445E0,1.674975872E0
9.937601137E0,6.454638839E-1,-8.269595146E0,1.532602906E0
9.943156137E0,4.875376225E-1,-7.721040249E0,1.198804140E0
9.948711137E0,5.557330847E-1,-7.237690449E0,1.027119160E0
9.954266137E0,2.727817893E-1,-6.877570629E0,8.590233326E-1
9.959821137E0,8.673982322E-2,-6.480959892E0,8.865407705E-1
9.965376137E0,-2.045863420E-1,-6.125027657E0,9.481559992E-1
9.970931137E0,-3.110669553E-1,-5.767300606E0,9.385846853E-1
9.976486137E0,-1.090528965E0,-5.600401402E0,6.795616150E-1
9.982041137E0,-1.790429592E0,-5.521438122E0,3.655036688E-1
9.987596137E0,-2.402393818E0,-5.517848969E0,-8.853443712E-2
9.993151137E0,-2.056032896E0,-5.515456200E0,-6.819544733E-2
9.998706137E0,-2.414358139E0,-5.670391560E0,-4.654040039E-1
1.000426114E1,-2.206182480E0,-5.766104221E0,-7.196413875E-1
1.000981614E1,-1.820937991E0,-5.742176056E0,-6.346961856E-1
1.001537114E1,-2.120040894E0,-5.681757450E0,-6.987041831E-1
1.002092614E1,-1.631905079E0,-5.529214859E0,-2.817548811E-1
1.002648114E1,-9.397810698E-1,-5.303092957E0,3.242274821E-1
1.003203614E1,-9.194421172E-1,-5.041079044E0,5.042873621E-1
1.003759114E1,-1.367498159E0,-4.740181446E0,5.856433511E-1
1.004314614E1,-1.712662816E0,-4.429712772E0,5.790630579E-1
1.004870114E1,-1.627717614E0,-4.151547432E0,6.616154313E-1
1.005425614E1,-1.665404558E0,-3.930809498E0,5.539384484E-1
1.005981114E1,-2.346760750E0,-3.805784464E0,2.715853751E-1
1.006536614E1,-2.827120066E0,-3.663411379E0,6.580262445E-3
1.007092114E1,-2.963510752E0,-3.664009571E0,-1.854437590E-2
1.007647614E1,-3.442075491E0,-3.702294827E0,-2.039881349E-1
1.008203114E1,-3.571287870E0,-3.744767427E0,-2.201396823E-1
1.008758614E1,-4.114458561E0,-3.868596077E0,-1.926222295E-1
1.009314114E1,-4.719842434E0,-4.048057556E0,-1.112662554E-1
1.009869614E1,-5.170291424E0,-4.347758770E0,-8.434699476E-2
1.010425114E1,-5.840281963E0,-4.663012981E0,-6.879365444E-2
1.010980614E1,-6.704689026E0,-5.062016487E0,-1.256231871E-2
1.011536114E1,-7.641479015E0,-5.567500114E0,-2.991028363E-3
1.012091614E1,-7.861618996E0,-6.120840549E0,1.166501045E-1
1.012647114E1,-7.852645874E0,-6.718447685E0,2.123630047E-1
1.013202614E1,-8.154141426E0,-7.262216568E0,1.214357466E-1
1.013758114E1,-8.590232849E0,-7.701299667E0,-1.136590764E-1
1.014313614E1,-8.253443718E0,-8.291728973E0,-2.494517565E-1
1.014869114E1,-7.831708431E0,-8.684151649E0,-1.375873014E-2
1.015424614E1,-7.295117855E0,-9.032905579E0,2.859423161E-1
1.015980114E1,-6.646663189E0,-9.312267303E0,7.172485590E-1
1.016535614E1,-6.030511379E0,-9.674779892E0,1.366301775E0
1.017091114E1,-5.484947681E0,-1.008215809E1,2.004587173E0
1.017646614E1,-5.078765869E0,-1.065105152E1,2.356930256E0
1.018202114E1,-5.061418056E0,-1.130668545E1,2.335394859E0
1.018757614E1,-5.601597786E0,-1.194018459E1,1.784447432E0
1.019313114E1,-6.510870457E0,-1.270708466E1,5.724828243E-1
1.019868614E1,-7.348956585E0,-1.337767315E1,-1.155135155E0
1.020424114E1,-7.484749317E0,-1.404885960E1,-2.755933523E0
1.020979614E1,-7.152745247E0,-1.482772350E1,-3.282952785E0
1.021535114E1,-6.325426579E0,-1.562573051E1,-2.691327333E0
1.022090614E1,-4.975874901E0,-1.653679657E1,-1.490728498E0
1.022646114E1,-2.738585472E0,-1.721097565E1,-6.765705943E-1
1.023201614E1,4.426721856E-2,-1.731865120E1,-5.318048596E-1
1.023757114E1,2.558525562E0,-1.721576118E1,-4.785645287E-3
1.024312614E1,4.270590305E0,-1.655534172E1,1.200598717E0
1.024868114E1,4.944169998E0,-1.521476269E1,1.775474429E0
1.025423614E1,4.496113777E0,-1.364148235E1,1.037886858E0
1.025979114E1,3.294318676E0,-1.211426258E1,-3.535395563E-1
1.026534614E1,2.069791555E0,-1.078804111E1,-9.092726111E-1
1.027090114E1,1.557727575E0,-9.901499748E0,-1.170688510E0
1.027645614E1,1.271785259E0,-9.354142189E0,-9.858429432E-1
1.028201114E1,1.107278705E0,-9.157930374E0,-5.635097623E-1
1.028756614E1,8.500502706E-1,-9.053842545E0,-3.212364316E-1
1.029312114E1,7.250252366E-1,-9.090332985E0,-2.608176768E-1
1.029867614E1,4.169493318E-1,-9.275776863E0,-2.045863420E-1
1.030423114E1,-3.888336942E-2,-9.476774216E0,-2.321037948E-1
1.030978614E1,-4.157529473E-1,-9.950552940E0,-1.992024779E-1
1.031534114E1,-4.815555513E-1,-1.082812023E1,-1.333998591E-1
1.032089614E1,-6.412764788E-1,-1.168235874E1,-3.409772366E-2
1.032645114E1,-1.060618639E0,-1.252762318E1,-4.965107143E-2
1.033200614E1,-1.328614831E0,-1.322453213E1,-1.136590764E-1
1.033756114E1,-1.533799291E0,-1.375334644E1,-1.776670814E-1
1.034311614E1,-1.720439434E0,-1.443649769E1,-2.045863420E-1
1.034867114E1,-1.941775560E0,-1.511127281E1,-1.980060786E-1
1.035422614E1,-1.888535261E0,-1.574477291E1,-3.032902777E-1
1.035978114E1,-1.864008784E0,-1.624846268E1,-4.564309120E-1
1.036533614E1,-2.197807550E0,-1.695015717E1,-8.213363886E-1
1.037089114E1,-2.496312141E0,-1.752622986E1,-1.085145116E0
1.037644614E1,-2.737987280E0,-1.784985924E1,-1.587637782E0
1.038200114E1,-2.674577475E0,-1.757588005E1,-1.728216171E0
1.038755614E1,-2.429911375E0,-1.725464439E1,-1.818545222E0
1.039311114E1,-2.129612207E0,-1.652064514E1,-1.855035782E0
1.039866614E1,-1.720439434E0,-1.560239983E1,-1.795215130E0
1.040422114E1,-1.402792215E0,-1.437428379E1,-1.453041553E0
1.040977614E1,-1.233500123E0,-1.312881947E1,-1.066002488E0
1.041533114E1,-1.427916884E0,-1.194556904E1,-6.646065116E-1
1.042088614E1,-1.816152334E0,-1.097109222E1,-3.170489967E-1
1.042644114E1,-2.177468538E0,-1.022333431E1,-5.503492057E-2
1.043199614E1,-2.587837696E0,-9.604191780E0,1.806581169E-1
1.043755114E1,-2.995215654E0,-9.007183075E0,3.702892959E-1
1.044310614E1,-3.510869026E0,-8.548956871E0,4.426721931E-1
1.044866114E1,-3.903890133E0,-8.103892326E0,5.120640397E-1
1.045421614E1,-4.175475597E0,-7.566703320E0,6.000002623E-1
1.045977114E1,-4.421338081E0,-6.889534473E0,5.258227587E-1
1.046532614E1,-4.547559261E0,-6.200401783E0,3.637090325E-1
1.047088114E1,-4.678566456E0,-5.571687698E0,2.506481707E-1
1.047643614E1,-4.674378872E0,-5.139782906E0,1.040877849E-1
1.048199114E1,-4.609772682E0,-4.825725079E0,-1.076770201E-1
1.048754614E1,-4.454837322E0,-4.535595417E0,-2.404786795E-1
1.049310114E1,-4.162314892E0,-4.274179459E0,-3.349951804E-1
1.049865614E1,-4.022335052E0,-4.049852371E0,-5.623133183E-1
1.050421114E1,-4.241876125E0,-3.932604074E0,-7.477570772E-1
1.050976614E1,-4.348955154E0,-3.917050600E0,-1.068395257E0
1.051532114E1,-4.277768612E0,-3.893122435E0,-1.376471281E0
1.052087614E1,-4.106681824E0,-3.820739508E0,-1.616949916E0
1.052643114E1,-3.843471289E0,-3.826721668E0,-1.905285001E0
1.053198614E1,-3.559323788E0,-3.876372576E0,-2.223530531E0
1.053754114E1,-3.208176851E0,-4.036691666E0,-2.560320139E0
1.054309614E1,-2.864806890E0,-4.319643021E0,-2.915056229E0
1.054865114E1,-2.464607239E0,-4.650450706E0,-3.297907829E0
1.055420614E1,-2.058425665E0,-4.987240791E0,-3.647259951E0
1.055976114E1,-1.645663738E0,-5.267200947E0,-3.987040758E0
1.056531614E1,-1.282552958E0,-5.484947681E0,-4.200600147E0
1.057087114E1,-1.061815023E0,-5.630311489E0,-4.436891556E0
1.057642614E1,-9.044869542E-1,-5.697310925E0,-4.655834675E0
1.058198114E1,-7.663014531E-1,-5.833103180E0,-4.842474937E0
1.058753614E1,-6.705885530E-1,-6.073582172E0,-5.117649555E0
1.059309114E1,-6.352944374E-1,-6.434898376E0,-5.432903767E0
1.059864614E1,-5.886343718E-1,-6.780063152E0,-5.498108387E0
1.060420114E1,-4.522434771E-1,-7.098308563E0,-5.499304771E0
1.060975614E1,-3.637090325E-1,-7.405188084E0,-5.446662426E0
1.061531114E1,-2.470589429E-1,-7.749155998E0,-5.343770981E0
1.062086614E1,-1.998006850E-1,-8.184649467E0,-5.121836662E0
1.062642114E1,-1.782652885E-1,-8.581260681E0,-4.801796913E0
1.063197614E1,-1.459621787E-1,-8.955737114E0,-4.534996986E0
1.063753114E1,-1.495514214E-1,-9.226723671E0,-4.320839405E0
1.064308614E1,-1.830509305E-1,-9.266205788E0,-4.103690624E0
1.064864114E1,6.161518395E-2,-9.257232666E0,-3.919443607E0
1.065419614E1,3.523431420E-1,-9.203393936E0,-3.619742393E0
1.065975114E1,7.639086246E-1,-9.119645119E0,-3.267399311E0
1.066530614E1,1.094118118E0,-9.034101486E0,-2.894119024E0
1.067086114E1,1.342971683E0,-9.095118523E0,-2.356930256E0
1.067641614E1,1.419542074E0,-9.247062683E0,-1.359123230E0
1.068197114E1,1.137787223E0,-9.637691498E0,1.092323542E0
1.068752614E1,-4.666004330E-2,-1.058584690E1,7.042675018E0
1.069308114E1,-1.966900229E0,-1.146580791E1,1.043928719E1
1.069863614E1,-3.198605776E0,-1.182532978E1,8.770891190E0
1.070419114E1,-3.696312666E0,-1.197308636E1,5.785845280E0
1.070974614E1,-3.716053486E0,-1.222134209E1,2.770888567E0
1.071530114E1,-3.672384501E0,-1.261735344E1,4.737788737E-1
1.072085614E1,-3.876971006E0,-1.307857037E1,-9.750752449E-1
1.072641114E1,-4.415356159E0,-1.352064419E1,-1.601994753E0
1.073196614E1,-5.157131195E0,-1.401416397E1,-1.725823283E0
1.073752114E1,-5.981458187E0,-1.449571991E1,-1.525424480E0
1.074307614E1,-6.484549522E0,-1.523749447E1,-1.524227977E0
1.074863114E1,-6.765107632E0,-1.589492226E1,-1.611566067E0
1.075418614E1,-6.841079712E0,-1.654098511E1,-1.828714728E0
1.075974114E1,-6.777071953E0,-1.701416588E1,-2.210968018E0
1.076529614E1,-6.733402729E0,-1.725344849E1,-2.586043119E0
1.077085114E1,-6.829115868E0,-1.731566048E1,-2.924627542E0
1.077640614E1,-7.161718369E0,-1.726361656E1,-3.180061340E0
1.078196114E1,-7.530212879E0,-1.715175247E1,-3.204587698E0
1.078751614E1,-7.402196884E0,-1.696571159E1,-2.880360365E0
1.079307114E1,-6.488138676E0,-1.671326828E1,-2.277967215E0
1.079862614E1,-5.364109993E0,-1.655952835E1,-1.558325768E0
1.080418114E1,-4.461417675E0,-1.659781456E1,-7.950153351E-1
1.080973614E1,-3.559921980E0,-1.679821396E1,7.716853172E-2
1.081529114E1,-2.748754978E0,-1.692922020E1,1.051047325E0
1.082084614E1,-2.005185366E0,-1.685623932E1,1.994417667E0
1.082640114E1,-1.069591761E0,-1.664566994E1,2.897708178E0
1.083195614E1,-4.384847581E-1,-1.630230141E1,3.561716557E0
1.083751114E1,2.213360928E-2,-1.596132374E1,3.854837179E0
1.084306614E1,4.115654826E-1,-1.570648766E1,3.878765583E0
1.084862114E1,6.897311211E-1,-1.554078484E1,3.617349625E0
1.085417614E1,5.258227587E-1,-1.535773373E1,3.086741209E0
1.085973114E1,-1.226321608E-1,-1.504786301E1,2.571087837E0
1.086528614E1,-6.311069727E-1,-1.473500156E1,2.166102648E0
1.087084114E1,-6.346961856E-1,-1.444427395E1,1.744965911E0
1.087639614E1,3.589233849E-3,-1.424148178E1,1.297508121E0
1.088195114E1,6.418746710E-1,-1.399920845E1,7.142575383E-1
1.088750614E1,1.220339537E0,-1.373719501E1,2.177468538E-1
1.089306114E1,1.424327731E0,-1.344527054E1,-2.727817893E-1
1.089861614E1,1.310668588E0,-1.326221943E1,-6.795616150E-1
1.090417114E1,1.060020447E0,-1.314138222E1,-1.021735311E0
1.090972614E1,9.128618240E-1,-1.300858021E1,-1.292722464E0
1.091528114E1,8.195417523E-1,-1.286381435E1,-1.597209096E0
1.092083614E1,6.825526357E-1,-1.255454254E1,-1.921436548E0
1.092639114E1,5.030909777E-1,-1.223988628E1,-2.168495417E0
1.093194614E1,4.097708762E-1,-1.197188950E1,-2.283949137E0
1.093750114E1,2.530409992E-1,-1.160219860E1,-2.380260229E0
1.094305614E1,1.489532143E-1,-1.131924725E1,-2.485544443E0
1.094861114E1,1.597209126E-1,-1.126840019E1,-2.739781857E0
1.095416614E1,-5.383851007E-2,-1.105962658E1,-3.416950703E0
1.095972114E1,-5.294120312E-1,-1.065942669E1,-5.763113499E0
1.096527614E1,-2.183450699E0,-1.026042366E1,-9.790233612E0
1.097083114E1,-3.795614958E0,-9.887741089E0,-1.167398357E1
1.097638614E1,-4.666004181E0,-9.586245537E0,-1.285065365E1
1.098194114E1,-5.151747227E0,-9.206983566E0,-1.337528038E1
1.098749614E1,-4.783850670E0,-8.897710800E0,-1.341835117E1
1.099305114E1,-4.296911240E0,-8.778069496E0,-1.279202938E1
1.099860614E1,-3.404986620E0,-8.961120605E0,-1.060199928E1
1.100416114E1,-2.577668190E0,-9.009575844E0,-7.646862984E0
1.100971614E1,-2.517847538E0,-8.803194046E0,-4.993820667E0
1.101527114E1,-3.022733212E0,-8.688937187E0,-1.792224169E0
1.102082614E1,-3.436093330E0,-8.334799767E0,2.120040894E0
1.102638114E1,-3.482753277E0,-7.715656757E0,4.356133461E0
1.103193614E1,-3.060420275E0,-7.175477028E0,3.774677753E0
1.103749114E1,-2.474178553E0,-6.917650223E0,3.092723370E0
1.104304614E1,-1.682752490E0,-6.652047157E0,3.124428272E0
1.104860114E1,-2.578266263E-1,-6.455835342E0,4.234697819E0
1.105415614E1,1.359721422E0,-6.285346985E0,5.915057659E0
1.105971114E1,2.700300455E0,-6.301498413E0,6.917052269E0
1.106526614E1,2.725425005E0,-6.297310829E0,6.584449768E0
1.107082114E1,2.809173822E0,-6.430112839E0,5.533402443E0
1.107637614E1,2.998206854E0,-6.462415695E0,4.241876125E0
1.108193114E1,3.098705292E0,-6.358327866E0,3.067598581E0
1.108748614E1,2.503490686E0,-6.129813194E0,2.052443504E0
1.109304114E1,2.112264156E0,-5.935994625E0,1.458425403E0
1.109859614E1,1.925624013E0,-5.769693375E0,9.577272534E-1
1.110415114E1,1.327418327E0,-5.556134224E0,1.322034448E-1
1.110970614E1,1.396211982E0,-5.219942570E0,-3.876372576E-1
1.111526114E1,8.518448472E-1,-4.896911621E0,-9.349954724E-1
1.112081614E1,7.507480979E-1,-4.486542225E0,-1.231705427E0
1.112637114E1,7.633104324E-1,-4.098905087E0,-1.265803218E0
1.113192614E1,5.401797295E-1,-3.784847260E0,-1.131206870E0
1.113748114E1,4.612165689E-1,-3.653241873E0,-7.651050687E-1
1.114303614E1,1.082752228E0,-3.729214191E0,7.956135273E-2
1.114859114E1,9.900303483E-1,-3.983451605E0,7.848458290E-1
1.115414614E1,1.082752228E0,-4.438087940E0,1.433300734E0
1.115970114E1,3.523431420E-1,-4.867001057E0,1.415354609E0
1.116525614E1,-3.260220885E-1,-5.120042324E0,1.015753269E0
1.117081114E1,-9.182456732E-1,-5.338387489E0,3.960121572E-1
1.117636614E1,-1.783251047E0,-5.516054630E0,-2.488535494E-1
1.118192114E1,-1.954936147E0,-5.579464436E0,-7.543373108E-1
1.118747614E1,-2.033899307E0,-5.474778175E0,-1.430309772E0
1.119303114E1,-1.701895118E0,-5.233701229E0,-2.076970100E0
1.119858614E1,-1.666002750E0,-5.008776188E0,-2.749353170E0
1.120414114E1,-1.715653777E0,-4.877170563E0,-3.387040377E0
1.120969614E1,-1.513460279E0,-4.785047054E0,-3.977469444E0
1.121525114E1,-9.661021233E-1,-4.701896667E0,-4.409972191E0
1.122080614E1,-4.660021961E-1,-4.652245522E0,-4.816154003E0
1.122636114E1,-1.220339537E-1,-4.618745804E0,-5.155934811E0
1.123191614E1,2.392822644E-3,-4.610371113E0,-5.486144066E0
1.123747114E1,9.990034252E-2,-4.667798996E0,-5.796014786E0
1.124302614E1,3.457628787E-1,-4.810171604E0,-5.794818401E0
1.124858114E1,6.197410822E-1,-4.997410297E0,-5.633901119E0
1.125413614E1,9.056833982E-1,-5.184648514E0,-5.383851051E0
1.125969114E1,1.055234790E0,-5.394618511E0,-5.145166874E0
1.126524614E1,1.030708313E0,-5.658427238E0,-4.874179840E0
1.127080114E1,7.698906660E-1,-6.015556335E0,-4.643870354E0
1.127635614E1,6.023930907E-1,-6.514459610E0,-4.454837322E0
1.128191114E1,7.668996453E-1,-7.240083218E0,-4.006781578E0
1.128746614E1,1.172483087E0,-8.183453560E0,-3.348157167E0
1.129302114E1,1.610369682E0,-9.331410408E0,-2.307279348E0
1.129857614E1,2.051247120E0,-1.112542915E1,-1.362712502E0
1.130413114E1,1.435693622E0,-1.352542973E1,-1.061815023E0
1.130968614E1,5.826523304E-1,-1.654337692E1,-1.462014675E0
1.131524114E1,-1.110867858E0,-1.996272087E1,-1.787438512E0
1.132079614E1,-3.199203968E0,-2.316491508E1,-1.743171334E0
1.132635114E1,-4.380660057E0,-2.595075989E1,-1.584646821E0
1.133190614E1,-5.085346222E0,-2.777887535E1,-1.918445587E0
1.133746114E1,-5.992824078E0,-2.914816856E1,-2.602792740E0
