Time (s),Acceleration x (m/s^2),Acceleration y (m/s^2),Acceleration z (m/s^2)
8.404421137,-0.01756185852,0.07528692484,-0.1111742035
8.409976137,-0.01206423342,0.06123743951,-0.1117850468
8.415531137,-0.005344913341,0.04031591862,-0.112243183
8.421086137,0.004734066315,0.01466033421,-0.1111742035
8.426641137,0.01481304597,-0.009315420873,-0.1081199646
8.432196137,0.02626643144,-0.03268032894,-0.1026223376
8.437751137,0.03573456407,-0.05283828825,-0.09712471068
8.443306137,0.03985778242,-0.06826218218,-0.09040539712
8.448861137,0.04092676565,-0.0809372589,-0.08460234851
8.454416137,0.03726168349,-0.08918370306,-0.07650861889
8.459971137,0.03115320951,-0.09315420687,-0.06872031838
8.465526137,0.02428117767,-0.09345962852,-0.06032116711
8.471081137,0.01786728203,-0.09620844573,-0.05680879578
8.476636137,0.01420219894,-0.1015533581,-0.05741964281
8.482191137,0.01267508045,-0.1085781008,-0.06245913357
8.487746137,0.01557660475,-0.1175880954,-0.06566607952
8.493301137,0.02137965336,-0.1298050433,-0.06963659078
8.498856137,0.02779355086,-0.1455343664,-0.07727217674
8.504411137,0.03497100621,-0.1679829955,-0.08506047726
8.509966137,0.0401632078,-0.1930277348,-0.09132166207
8.515521137,0.04169032723,-0.2168507725,-0.09177979827
8.521076137,0.0401632078,-0.2392994165,-0.08567132801
8.526631137,0.03863608837,-0.2542651594,-0.07788302749
8.532186137,0.03863608837,-0.2623589039,-0.06765133142
8.537741137,0.04077405483,-0.2672456801,-0.05787777901
8.543296137,0.04611896724,-0.2728960216,-0.05039490014
8.548851137,0.0531437099,-0.2828222811,-0.04321744293
8.554406137,0.05940489471,-0.3006895781,-0.03726168349
8.559961137,0.06108472496,-0.3255815804,-0.03283303976
8.565516137,0.06123743951,-0.3527642787,-0.03252761811
8.571071137,0.05940489471,-0.375823766,-0.03405473381
8.576626137,0.05390727147,-0.3888042867,-0.03710897267
8.582181137,0.04917320609,-0.391705811,-0.04291202128
8.587736137,0.04169032723,-0.3897205591,-0.04886778072
8.593291137,0.03252761811,-0.3875826001,-0.05390727147
8.598846137,0.02061609551,-0.3903313875,-0.05833591148
8.604401137,0.007788302377,-0.3987305462,-0.06536065787
8.609956137,-0.00167983002,-0.4057552814,-0.07055285573
8.615511137,-0.008857285604,-0.4121691883,-0.07360709459
8.621066137,-0.01298050396,-0.4170559645,-0.07498150319
8.626621137,-0.01649287529,-0.418124944,-0.07406523079
8.632176137,-0.02076880634,-0.4132381678,-0.07024743408
8.637731137,-0.02397575416,-0.4033119082,-0.06612421572
8.643286137,-0.0287098214,-0.3939964771,-0.06368082762
8.648841137,-0.03588727489,-0.3800997138,-0.06032116711
8.654396137,-0.04443913698,-0.3662029207,-0.05543438718
8.659951137,-0.05665608495,-0.3529170156,-0.05131116882
8.665506137,-0.06795676053,-0.3431434333,-0.04825693369
8.671061137,-0.07788302749,-0.3374931216,-0.04550812021
8.676616137,-0.08597674966,-0.3260397315,-0.04275930673
8.682171137,-0.09223793447,-0.3113794029,-0.03985778242
8.687726137,-0.09697200358,-0.2933593988,-0.03802524135
8.693281137,-0.100026235,-0.2767138183,-0.03817795217
8.698836137,-0.1049130186,-0.2583884001,-0.0397050716
8.704391137,-0.1110214889,-0.2441861928,-0.03909422457
8.709946137,-0.1139230132,-0.2318165302,-0.03542914242
8.715501137,-0.1162136942,-0.2189887464,-0.03649812192
8.721056137,-0.1214058921,-0.2043284029,-0.03848337755
8.726611137,-0.1218640283,-0.1913478971,-0.04367557913
8.732166137,-0.1256818175,-0.1791309565,-0.04611896724
8.737721137,-0.1320957243,-0.1658450365,-0.04764608666
8.743276137,-0.1365243644,-0.1478250325,-0.04917320609
8.748831137,-0.1427855492,-0.1247655526,-0.05085303262
8.754386137,-0.1458397806,-0.09101624042,-0.05329642445
8.759941137,-0.1496575773,-0.05253286287,-0.05222744122
8.765496137,-0.151337415,-0.005344913341,-0.04795150831
8.771051137,-0.1478250325,0.05131116882,-0.0401632078
8.776606137,-0.1398840249,0.1102579311,-0.02565558441
8.782161137,-0.1294996142,0.1704263836,-0.008246437646
8.787716137,-0.1133121699,0.2237228155,0.01053711493
8.793271137,-0.09544488788,0.2644968629,0.02626643144
8.798826137,-0.07437065244,0.2935121059,0.0387887992
8.804381137,-0.05329642445,0.3119902313,0.04963133857
8.809936137,-0.03069507517,0.3191677034,0.05879404768
8.815491137,-0.01236965694,0.311226666,0.06734590977
8.821046137,0.004886778072,0.3003841341,0.07574506104
8.826601137,0.02000524849,0.2886253297,0.08475505561
8.832156137,0.03390202299,0.2806843221,0.09009996802
8.837711137,0.04718795046,0.2854183912,0.09223793447
8.843266137,0.05772506446,0.3034383655,0.09223793447
8.848821137,0.06841489673,0.3269560039,0.09132166207
8.854376137,0.07207997888,0.3480302393,0.08994726092
8.859931137,0.07330167294,0.3631486893,0.08704573661
8.865486137,0.06780404598,0.3706315756,0.07971556485
8.871041137,0.05772506446,0.3666610718,0.07345438004
8.876596137,0.04428642616,0.355665803,0.06642963737
8.882151137,0.03191677108,0.3413109183,0.06001574174
8.887706137,0.01847812906,0.3234436214,0.0540599823
8.893261137,0.007024743594,0.3074088693,0.05070032179
8.898816137,-0.007024743594,0.2899997234,0.04398100078
8.904371137,-0.01847812906,0.2724378705,0.0426065959
8.909926137,-0.03634541109,0.2538070381,0.04046862945
8.915481137,-0.05726693198,0.2353289127,0.0387887992
8.921036137,-0.08338065445,0.2171562016,0.03771981969
8.926591137,-0.1119377613,0.2017323077,0.03481829539
8.932146137,-0.1420219839,0.1992889196,0.03161134571
8.937701137,-0.1695101112,0.2063136548,0.02809897438
8.943256137,-0.1925695986,0.2264716178,0.0253501609
8.948811137,-0.2116585821,0.2498365343,0.02428117767
8.954366137,-0.2267770469,0.2709107697,0.02932066843
8.959921137,-0.2409792393,0.2828222811,0.04245388508
8.965476137,-0.2519744933,0.2887780368,0.06123743951
8.971031137,-0.2573194206,0.2947337925,0.07956285775
8.976586137,-0.2567085624,0.304812789,0.09605573118
8.982141137,-0.2499892414,0.3180987239,0.1101052165
8.987696137,-0.2363978922,0.3339807391,0.1207950488
8.993251137,-0.2200577259,0.3520007432,0.1322484314
8.998806137,-0.1960819662,0.3710896969,0.1495048702
9.004361137,-0.1716480851,0.3910949528,0.1699682474
9.009916137,-0.1411057115,0.4146125913,0.1930277348
9.015471137,-0.109036237,0.4396573007,0.2191414535
9.021026137,-0.07421794534,0.4721849263,0.2362451702
9.026581137,-0.03665083647,0.5176930428,0.2478512824
9.032136137,0.004428642802,0.5746545792,0.253348887
9.037691137,0.05024218559,0.6435275674,0.2538070381
9.043246137,0.09773556143,0.7203416228,0.2493783981
9.048801137,0.1470614821,0.7962393761,0.2392994165
9.054356137,0.1971509457,0.860989213,0.2212794125
9.059911137,0.2501419485,0.8996253014,0.1939440072
9.065466137,0.3022166789,0.9049702287,0.1574458778
9.071021137,0.3498627543,0.8826742768,0.1160609797
9.076576137,0.3898732662,0.8325847983,0.07711946964
9.082131137,0.4277457893,0.7572978735,0.04352286831
9.087686137,0.4599680007,0.6668924689,0.01603474095
9.093241137,0.489441365,0.5648810267,-0.006108472589
9.098796137,0.5172349215,0.4541649222,-0.02260134928
9.104351137,0.5431959033,0.3443651497,-0.03313846514
9.109906137,0.5656445622,0.233649075,-0.03649812192
9.115461137,0.5851916671,0.1220167428,-0.03619270027
9.121016137,0.6015318632,0.01404948719,-0.03588727489
9.126571137,0.6131379604,-0.08490777016,-0.03848337755
9.132126137,0.6174138784,-0.1818797737,-0.04718795046
9.137681137,0.6103891134,-0.2725905776,-0.05589252338
9.143236137,0.5896202922,-0.3536805511,-0.06444438547
9.148791137,0.556176424,-0.4385883212,-0.06994201243
9.154346137,0.5109737515,-0.5445703268,-0.06719319522
9.159901137,0.4651601911,-0.6569662094,-0.03115320951
9.165456137,0.4060607255,-0.7458444834,0.02611372061
9.171011137,0.3374931216,-0.7995990515,0.04642439261
9.176566137,0.2661767006,-0.8238802552,0.04230117425
9.182121137,0.1918060333,-0.8156337738,0.02382304333
9.187676137,0.1125486046,-0.778524816,-0.001221694518
9.193231137,0.03191677108,-0.7189671993,-0.02168507688
9.198786137,-0.05344913527,-0.6302416325,-0.02779355086
9.204341137,-0.1415638477,-0.5279247165,-0.03451287001
9.209896137,-0.2272351831,-0.409267664,-0.05192201585
9.215451137,-0.3080197275,-0.2773246467,-0.07559234649
9.221006137,-0.389567852,-0.1275143623,-0.08933641016
9.226561137,-0.4720322192,0.03527642787,-0.0813953951
9.232116137,-0.558925271,0.2038702667,-0.05192201585
9.237671137,-0.6474980712,0.3710896969,-0.01450762246
9.243226137,-0.7369872332,0.5288410187,0.01863084175
9.248781137,-0.8220477104,0.6690304875,0.04077405483
9.254336137,-0.9000834227,0.7983773947,0.05176930502
9.259891137,-0.9717052579,0.9077190161,0.05222744122
9.265446137,-1.036149621,0.9926267862,0.04443913698
9.271001137,-1.090209603,1.05233717,0.03054236248
9.276556137,-1.130525589,1.090667725,0.01252236869
9.282111137,-1.155112147,1.107618809,-0.01023169141
9.287666137,-1.155417562,1.112047434,-0.03634541109
9.293221137,-1.131441832,1.117392302,-0.06123743951
9.298776137,-1.085933685,1.124569774,-0.08857285231
9.304331137,-1.022252917,1.127929449,-0.1171299592
9.309886137,-0.9449806809,1.119683027,-0.1408002973
9.315441137,-0.8533536196,1.088682532,-0.1546970755
9.320996137,-0.7527165413,1.027597785,-0.1565296054
9.326551137,-0.6424586177,0.9397885203,-0.1525591016
9.332106137,-0.5253286362,0.8206732869,-0.1487413049
9.337661137,-0.4052971601,0.6708629727,-0.1493521482
9.343216137,-0.280531615,0.4909684956,-0.1652341783
9.348771137,-0.1606528312,0.2875563502,-0.1939440072
9.354326137,-0.04611896724,0.07146912813,-0.2344126403
9.359881137,0.05925218388,-0.1426328421,-0.2796153426
9.365436137,0.1531699449,-0.3329117596,-0.3155026138
9.370991137,0.2307475507,-0.4830274582,-0.3364241421
9.376546137,0.2880144715,-0.5867187977,-0.3454341292
9.382101137,0.3324536085,-0.6497887969,-0.3449759781
9.387656137,0.3633013964,-0.6823163629,-0.33810395
9.393211137,0.3814741075,-0.691631794,-0.3229855001
9.398766137,0.3851391971,-0.674069941,-0.3055763543
9.404321137,0.3773508966,-0.6374191046,-0.289083451
9.409876137,0.3526115716,-0.6088619828,-0.2718270421
9.415431137,0.3188622594,-0.578625083,-0.2615953386
9.420986137,0.2793098986,-0.5413633585,-0.257930249
9.426541137,0.2319692522,-0.4955498278,-0.2576248348
9.432096137,0.1798945218,-0.440420866,-0.2539597452
9.437651137,0.1236965731,-0.3726168275,-0.2484621257
9.443206137,0.06933116168,-0.2910687327,-0.2400629669
9.448761137,0.01664558798,-0.2015796006,-0.2281514555
9.454316137,-0.03665083647,-0.1146865711,-0.213491112
9.459871137,-0.08612946421,-0.03619270027,-0.197914511
9.465426137,-0.1304158866,0.02565558441,-0.1805053651
9.470981137,-0.1655396074,0.07711946964,-0.1605001241
9.476536137,-0.1936385781,0.1160609797,-0.1403421611
9.482091137,-0.2128802687,0.1466033459,-0.1240019947
9.487646137,-0.2267770469,0.1811162084,-0.1096470803
9.493201137,-0.2362451702,0.2208212912,-0.09193251282
9.498756137,-0.2406738251,0.2715215981,-0.07040014863
9.504311137,-0.2415900975,0.3287885487,-0.04642439261
9.509866137,-0.238077715,0.3901786804,-0.02489202656
9.515421137,-0.2276933193,0.4463766217,-0.004581354558
9.520976137,-0.2041756958,0.4989095032,0.01710372418
9.526531137,-0.162485376,0.5425850749,0.03863608837
9.532086137,-0.1043021679,0.5735855699,0.06291726977
9.537641137,-0.03313846514,0.5839699507,0.09071081877
9.543196137,0.04963133857,0.5706840754,0.1217113137
9.548751137,0.1385096163,0.5291464329,0.1580567211
9.554306137,0.2351761907,0.4543176591,0.1899735034
9.559861137,0.3254288733,0.3573456407,0.2228065431
9.565416137,0.411405623,0.238077715,0.2521272004
9.570971137,0.4931064546,0.1087308154,0.2806843221
9.576526137,0.5685460567,-0.01725643501,0.3103103936
9.582081137,0.6371136904,-0.1288887709,0.3432961702
9.587636137,0.7017107606,-0.2153236568,0.3796415627
9.593191137,0.7583668828,-0.2770192325,0.4259132445
9.598746137,0.8061656952,-0.3168770075,0.4836383164
9.604301137,0.8467870355,-0.3390202224,0.558925271
9.609856137,0.8767185211,-0.3503209054,0.6455128193
9.615411137,0.8939749599,-0.3510844707,0.7423321605
9.620966137,0.9084826112,-0.333828032,0.8492304087
9.626521137,0.9203941226,-0.2909159958,0.9536852837
9.632076137,0.9312366247,-0.2214321345,1.048977494
9.637631137,0.9397885203,-0.1307213157,1.131899953
9.643186137,0.947729528,-0.02947338112,1.194664478
9.648741137,0.9509364963,0.05894676223,1.250709772
9.654296137,0.9338327646,0.1137702987,1.294538021
9.659851137,0.8889354467,0.1038440317,1.30660224
9.665406137,0.8307522535,0.05986303091,1.31958282
9.670961137,0.7826480269,0.08674030751,1.372421026
9.676516137,0.760810256,0.238230437,1.46282649
9.682071137,0.7802046537,0.5471664071,1.59049356
9.687626137,0.8638907075,1.055849433,1.760156393
9.693181137,1.089140654,1.85254705,1.995943427
9.698736137,1.390746474,2.695668936,2.270672083
9.704291137,1.571709991,3.189386368,2.531351089
9.709846137,1.591104388,3.192898512,2.719186544
9.715401137,1.509098172,2.8059268,2.812035322
9.720956137,1.4008255,2.17293644,2.805621386
9.726511137,1.313016176,1.426022887,2.723004341
9.732066137,1.265675545,0.7259919643,2.585869074
9.737621137,1.255901933,0.1223221645,2.429339647
9.743176137,1.274838209,-0.3440597057,2.295411348
9.748731137,1.321109891,-0.6836907864,2.189276695
9.754286137,1.387081385,-0.9261971712,2.108492136
9.759841137,1.452289343,-1.042410851,2.033663273
9.765396137,1.507265568,-1.052642584,1.956543803
9.770951137,1.544374585,-1.004385591,1.87026155
9.776506137,1.550024867,-0.9306257963,1.783368587
9.782061137,1.51230514,-0.8246437907,1.699529767
9.787616137,1.420219898,-0.6728482842,1.610498786
9.793171137,1.270714998,-0.5089884996,1.526049137
9.798726137,1.086391807,-0.3869717419,1.448624253
9.804281137,0.8930587173,-0.3013004065,1.36860323
9.809836137,0.7154548764,-0.2351761907,1.289956689
9.815391137,0.5621321797,-0.231511116,1.237882018
9.820946137,0.4167505503,-0.3255815804,1.233758807
9.826501137,0.278088212,-0.4711159468,1.260177851
9.832056137,0.1661504507,-0.5931326747,1.299424887
9.837611137,0.09743013978,-0.6497887969,1.352568507
9.843166137,0.07360709459,-0.5937435627,1.416860223
9.848721137,0.1056765765,-0.3533751369,1.492299795
9.854276137,0.1479777545,-0.03176405653,1.5930897
9.859831137,0.1748550236,0.2796153426,1.718618751
9.865386137,0.1743968874,0.534185946,1.855448604
9.870941137,0.142327413,0.7153021693,1.982962966
9.876496137,0.09300149232,0.8078454733,2.093831778
9.882051137,0.02397575416,0.8309049606,2.20515871
9.887606137,-0.05054761097,0.8347227573,2.304574013
9.893161137,-0.114533864,0.843274653,2.38856554
9.898716137,-0.1637070626,0.8579349518,2.432240963
9.904271137,-0.195776552,0.8629744649,2.39696455
9.909826137,-0.2345653474,0.7701256871,2.311904192
9.915381137,-0.2675510943,0.6287145615,2.199966431
9.920936137,-0.289388895,0.4329380095,2.090319395
9.926491137,-0.2808370292,0.2334963679,1.966317296
9.932046137,-0.2444916219,0.05986303091,1.84002471
9.937601137,-0.1953184158,-0.1128540337,1.731904745
9.943156137,-0.1491994411,-0.3022166789,1.66654408
9.948711137,-0.1012479365,-0.4706578255,1.615690947
9.954266137,-0.04856235534,-0.6540647149,1.583468795
9.959821137,0.02641914412,-0.8360971808,1.559493065
9.965376137,0.1264453828,-1.036760569,1.540404081
9.970931137,0.240368396,-1.19558084,1.521925926
9.976486137,0.3506263196,-1.278656006,1.511847019
9.982041137,0.4344651103,-1.307671309,1.520398855
9.987596137,0.4727957845,-1.297592282,1.550635815
9.993151137,0.4813476503,-1.205659747,1.555217147
9.998706137,0.4758500159,-1.065317631,1.517497301
10.00426114,0.4311054647,-0.9246700406,1.459772229
10.00981614,0.3713951409,-0.7771504521,1.362494826
10.01537114,0.2935121059,-0.6833853722,1.266286373
10.02092614,0.215781793,-0.6320741773,1.165038466
10.02648114,0.1684411317,-0.6113054156,1.035386086
10.03203614,0.1382041872,-0.6029062271,0.9026795626
10.03759114,0.1027750522,-0.6302416325,0.8015843034
10.04314614,0.06429167092,-0.6646018028,0.738819778
10.04870114,0.02412846684,-0.6896465421,0.694380641
10.05425614,-0.01038440317,-0.7240067124,0.6473453641
10.05981114,-0.05039490014,-0.7956285477,0.6132906675
10.06536614,-0.1036913246,-0.887866497,0.5989357233
10.07092114,-0.1551551968,-0.94085747,0.5815265775
10.07647614,-0.2096733153,-0.9242119193,0.5719057322
10.08203114,-0.2747285664,-0.8359444737,0.5567872524
10.08758614,-0.3373403847,-0.7026270628,0.5248705149
10.09314114,-0.3970507085,-0.5763344169,0.4865398407
10.09869614,-0.4530959427,-0.4278984964,0.4416425824
10.10425114,-0.5118899941,-0.260373652,0.398119688
10.10980614,-0.5624375939,-0.1101052165,0.3463504016
10.11536114,-0.6106945276,0.008551862091,0.3150444627
10.12091614,-0.6513158679,0.1044548824,0.280226171
10.12647114,-0.6739172339,0.1980672181,0.2186833173
10.13202614,-0.6884248853,0.2744231224,0.1374406368
10.13758114,-0.7047650218,0.2719797492,0.06551336497
10.14313614,-0.7313368917,0.2661767006,0.003359660041
10.14869114,-0.7432484031,0.2192941606,-0.09544488788
10.15424614,-0.7333221436,0.1716480851,-0.2043284029
10.15980114,-0.7015580535,0.1363716573,-0.3232909143
10.16535614,-0.6468872428,0.08429691941,-0.4520269632
10.17091114,-0.5679352283,-0.0007635590737,-0.5859552622
10.17646614,-0.4801259339,-0.1301104724,-0.7160657048
10.18202114,-0.3874298632,-0.2964136302,-0.8331956863
10.18757614,-0.3025220931,-0.4957025647,-0.9286405444
10.19313114,-0.2333436459,-0.6995728016,-0.9891144037
10.19868614,-0.2040229887,-0.8713735938,-1.017518878
10.20424114,-0.2217375487,-0.9530744553,-1.035233378
10.20979614,-0.2799207568,-0.8935168386,-1.06898272
10.21535114,-0.375823766,-0.5923691392,-1.120446563
10.22090614,-0.5170822144,0.005039489828,-1.200620294
10.22646114,-0.7153021693,0.7178982496,-1.330730796
10.23201614,-0.9379559755,1.193442822,-1.543000221
10.23757114,-1.151905179,1.282015681,-1.821546555
10.24312614,-1.311489105,1.224596024,-2.13170433
10.24868114,-1.382347345,1.270714998,-2.428728819
10.25423614,-1.428771734,1.411820769,-2.682077646
10.25979114,-1.510319829,1.411515355,-2.850060701
10.26534614,-1.585606813,1.188708782,-2.934815645
10.27090114,-1.627144337,0.894127667,-2.963678122
10.27645614,-1.639514089,0.6907155514,-2.954668283
10.28201114,-1.622715712,0.6047387719,-2.92519474
10.28756614,-1.593395114,0.6103891134,-2.876632452
10.29312114,-1.56651783,0.6879667044,-2.807759523
10.29867614,-1.538266063,0.8124268651,-2.721171856
10.30423114,-1.508640051,0.9608627558,-2.612899065
10.30978614,-1.473821759,1.100441337,-2.493020296
10.31534114,-1.421288848,1.231620789,-2.378792048
10.32089614,-1.341420531,1.333937645,-2.28594327
10.32645114,-1.241241574,1.394411564,-2.194926977
10.33200614,-1.129303813,1.411973476,-2.100856543
10.33756114,-1.009577751,1.384485364,-2.004800797
10.34311614,-0.8838959932,1.317902923,-1.903705478
10.34867114,-0.7423321605,1.195886254,-1.796654463
10.35422614,-0.5978667736,1.039203882,-1.681967974
10.35978114,-0.462564081,0.874427855,-1.574458838
10.36533614,-0.3552076817,0.6923953891,-1.47275269
10.37089114,-0.2829749882,0.4756973088,-1.364174604
10.37644614,-0.2547233105,0.2551814318,-1.253153205
10.38200114,-0.2768665254,0.0421484597,-1.163205862
10.38755614,-0.3220692277,-0.1475196183,-1.118003249
10.39311114,-0.3860554695,-0.3055763543,-1.121057391
10.39866614,-0.4686725736,-0.4155288339,-1.181836724
10.40422114,-0.560452342,-0.4735593498,-1.305838704
10.40977614,-0.6375718117,-0.4775298536,-1.473363638
10.41533114,-0.6934643388,-0.4706578255,-1.652647257
10.42088614,-0.725533843,-0.4808894992,-1.812383771
10.42644114,-0.7325585485,-0.5196782947,-1.943868637
10.43199614,-0.71423316,-0.5989357233,-2.038091898
10.43755114,-0.6728482842,-0.7125533223,-2.077338934
10.44310614,-0.6164975762,-0.8480086923,-2.067565203
10.44866114,-0.5502206683,-0.992321372,-2.008465767
10.45421614,-0.4689779878,-1.132358074,-1.913020849
10.45977114,-0.375823766,-1.247350097,-1.790393353
10.46532614,-0.2790044844,-1.31805563,-1.649745703
10.47088114,-0.180199936,-1.34096241,-1.501309872
10.47643614,-0.0798682794,-1.303242683,-1.352263093
10.48199114,0.01924168877,-1.216349602,-1.20550704
10.48754614,0.1154501289,-1.085933685,-1.060889006
10.49310114,0.2272351831,-0.900541544,-0.9300149679
10.49865614,0.3480302393,-0.6762079,-0.8179244995
10.50421114,0.4640912116,-0.4335488379,-0.7006418109
10.50976614,0.5664080977,-0.1899735034,-0.5723638535
10.51532114,0.6482616663,0.0397050716,-0.4385883212
10.52087614,0.7145385742,0.2614426315,-0.3081724346
10.52643114,0.7598940134,0.4546230733,-0.1872246861
10.53198614,0.7821899056,0.6090146899,-0.07864658535
10.53754114,0.7779139876,0.7214106321,0.01557660475
10.54309614,0.7414158583,0.8047912717,0.08979454637
10.54865114,0.6730009913,0.8699992299,0.1437018216
10.55420614,0.575876236,0.9287932515,0.1693574041
10.55976114,0.4508052766,0.9657495022,0.1702736765
10.56531614,0.3034383655,0.9733850956,0.1479777545
10.57087114,0.1345391124,0.9546015263,0.1206423342
10.57642614,-0.0536018461,0.9309312105,0.09544488788
10.58198114,-0.2498365343,0.9161182046,0.06719319522
10.58753614,-0.4468347728,0.9161182046,0.02901524492
10.59309114,-0.6433748603,0.9394831061,-0.01496575773
10.59864614,-0.8293778896,0.9820896983,-0.05726693198
10.60420114,-0.99659729,1.030346632,-0.100026235
10.60975614,-1.14350605,1.077839971,-0.1437018216
10.61531114,-1.268577099,1.108840466,-0.1806580722
10.62086614,-1.374406338,1.120446563,-0.2121167034
10.62642114,-1.458245158,1.082879424,-0.2333436459
10.63197614,-1.523147583,0.9930849075,-0.2440334857
10.63753114,-1.575833201,0.8655705452,-0.2483094037
10.64308614,-1.61446929,0.725533843,-0.2411319613
10.64864114,-1.646080613,0.5952706337,-0.2327328026
10.65419614,-1.678302884,0.4737120569,-0.2373141646
10.65975114,-1.707012653,0.3347443044,-0.2707580328
10.66530614,-1.737555027,0.1795890927,-0.3358132839
10.67086114,-1.76916635,0.01893626526,-0.4278984964
10.67641614,-1.780314326,-0.114533864,-0.5364766121
10.68197114,-1.71709168,-0.1259872466,-0.6484143734
10.68752614,-1.415791273,0.2538070381,-0.7229377031
10.69308114,-0.8283088803,1.045159698,-0.7136223316
10.69863614,-0.2454078794,1.648524046,-0.6336013079
10.70419114,0.1320957243,1.706554532,-0.5398362875
10.70974614,0.3067980409,1.332868695,-0.4715740979
10.71530114,0.3168770075,0.6525375843,-0.4486673176
10.72085614,0.2241809368,-0.1849340051,-0.4622586668
10.72641114,0.09895725548,-1.018435121,-0.4853181541
10.73196614,0.01130067464,-1.72121489,-0.4876088202
10.73752114,-0.020310672,-2.264868975,-0.4523324072
10.74307614,0.001832541777,-2.632904291,-0.3907895386
10.74863114,0.0536018461,-2.812188148,-0.3327590525
10.75418614,0.1192679256,-2.812493563,-0.2895416021
10.75974114,0.1840177327,-2.672304153,-0.2736595869
10.76529614,0.2370087355,-2.429034233,-0.271368891
10.77085114,0.2754921019,-2.12238884,-0.2606790662
10.77640614,0.2945810854,-1.772373319,-0.2105895877
10.78196114,0.3006895781,-1.40815568,-0.08475505561
10.78751614,0.3061871827,-1.048519373,0.1194206402
10.79307114,0.3353551328,-0.6801784039,0.3507790267
10.79862614,0.3935383558,-0.3013004065,0.5633538961
10.80418114,0.4834856093,0.07162184268,0.7530219555
10.80973614,0.6102364063,0.4199574888,0.9190196991
10.81529114,0.780662775,0.740957737,1.061805248
10.82084614,1.001636744,1.023627281,1.187181592
10.82640114,1.251320601,1.269646049,1.294690728
10.83195614,1.517191887,1.473210931,1.384638071
10.83751114,1.769777179,1.601030707,1.466949701
10.84306614,1.994416356,1.628976941,1.547276139
10.84862114,2.173852682,1.537044406,1.619966984
10.85417614,2.290524483,1.323706031,1.700751424
10.85973114,2.347180605,1.028819442,1.809024215
10.86528614,2.371614456,0.7235485911,1.938065648
10.87084114,2.384594917,0.4691306949,2.05519557
10.87639614,2.399408102,0.2887780368,2.115974903
10.88195114,2.420024157,0.1922641695,2.098412991
10.88750614,2.446290493,0.1554606259,2.033968687
10.89306114,2.480345249,0.1614163816,1.947533727
10.89861614,2.520050287,0.1922641695,1.869039893
10.90417114,2.563420534,0.2328855246,1.813147426
10.90972614,2.607096195,0.2756448388,1.787339091
10.91528114,2.64802289,0.3142809272,1.773289561
10.92083614,2.675969124,0.3284831047,1.773136854
10.92639114,2.687880754,0.3155026138,1.78581202
10.93194614,2.688033342,0.2774773538,1.80199945
10.93750114,2.684673786,0.1762294322,1.809176922
10.94305614,2.677954435,-0.02550287358,1.803679228
10.94861114,2.668028116,-0.3205420971,1.760156393
10.95416614,2.641456366,-0.6927008033,1.678608298
10.95972114,2.548607588,-1.181684017,1.57904017
10.96527614,2.255095482,-2.026027679,1.492910743
10.97083114,1.768250108,-2.878923178,1.492147088
10.97638614,1.202911019,-3.297811747,1.553231835
10.98194114,0.5868715048,-3.326215982,1.649440289
10.98749614,-0.04688252881,-3.017280102,1.741678238
10.99305114,-0.669794023,-2.378486633,1.794974685
10.99860614,-1.193137407,-1.444501042,1.787644506
11.00416114,-1.539640546,-0.3318427801,1.72594893
11.00971614,-1.710066915,0.8599202037,1.654785275
11.01527114,-1.702889442,2.102078199,1.639666796
11.02082614,-1.511083364,3.486105204,1.698613524
11.02638114,-1.175117373,4.932591438,1.805664539
11.03193614,-0.8988617659,5.835882187,1.922947168
11.03749114,-0.7884510756,6.060979366,2.02969265
11.04304614,-0.8185353279,5.721348286,2.126970053
11.04860114,-0.901152432,4.994592667,2.189123869
11.05415614,-0.9119949341,4.127647877,2.208518267
11.05971114,-0.7893673778,3.29246664,2.189123869
11.06526614,-0.6137487888,2.448275805,2.167896986
11.07082114,-0.4475983381,1.549566746,2.157207012
11.07637614,-0.3103103936,0.6679614782,2.126206636
11.08193114,-0.1976090819,-0.1024696305,2.063441992
11.08748614,-0.09147437662,-0.6319214702,1.979755998
11.09304114,0.007941014133,-0.9407047629,1.905079842
11.09859614,0.1068982705,-1.001178622,1.820172071
11.10415114,0.1708845198,-0.8556442857,1.743968964
11.10970614,0.1953184158,-0.5549547076,1.662726283
11.11526114,0.1821851879,-0.1954711229,1.578734756
11.12081614,0.1322484314,0.137898773,1.509250879
11.12637114,0.06459710002,0.4083513916,1.433658481
11.13192614,-0.00809372589,0.5311316848,1.364174604
11.13748114,-0.07345438004,0.4639385045,1.300188422
11.14303614,-0.1127013192,0.2455606014,1.22062552
11.14859114,-0.1003316641,-0.07375980914,1.107771516
11.15414614,-0.04169032723,-0.4327852726,0.971857965
11.15970114,0.04352286831,-0.7624900937,0.8170081973
11.16525614,0.124612838,-1.021642089,0.6684195995
11.17081114,0.1919587553,-1.125027895,0.4993676245
11.17636614,0.2231119573,-1.138008475,0.3440597057
11.18192114,0.2325800955,-1.093263865,0.1931804419
11.18747614,0.2197522968,-1.011868477,0.03649812192
11.19303114,0.1846285909,-0.9197832346,-0.1362189353
11.19858614,0.1287360638,-0.8582404256,-0.3171824515
11.20414114,0.05192201585,-0.8399149776,-0.4854708612
11.20969614,-0.04459185153,-0.8173136115,-0.6482616663
11.21525114,-0.1482831687,-0.7687512636,-0.8223531246
11.22080614,-0.2548760176,-0.6890357137,-1.013853788
11.22636114,-0.3594835997,-0.5877877474,-1.216196895
11.23191614,-0.462869525,-0.4790569544,-1.410446286
11.23747114,-0.5644228458,-0.3677300513,-1.57904017
11.24302614,-0.6516213417,-0.2799207568,-1.727781415
11.24858114,-0.7116370797,-0.2437280566,-1.858350039
11.25413614,-0.7463026643,-0.2620534599,-1.974105597
11.25969114,-0.7736380696,-0.2950392365,-2.075811625
11.26524614,-0.8138012886,-0.3077143133,-2.163468361
11.27080114,-0.8785510659,-0.2840439677,-2.232035875
11.27635614,-0.9843803644,-0.204633832,-2.279681921
11.28191114,-1.135106921,-0.05680879578,-2.323357582
11.28746614,-1.311030984,0.1815743446,-2.386885643
11.29302114,-1.470462084,0.5815265775,-2.475000381
11.29857614,-1.572320819,1.181684017,-2.575026512
11.30413114,-1.631267548,1.860029936,-2.644052267
11.30968614,-1.68685472,2.444916248,-2.650771618
11.31524114,-1.734348059,2.84028697,-2.575179338
11.32079614,-1.736180663,2.95283556,-2.366575003
11.32635114,-1.68792367,2.765916348,-2.077033281
11.33190614,-1.631878495,2.345195293,-1.779398084
11.33746114,-1.615843654,1.773442268,-1.480235577
11.34301614,-1.621952176,1.161067963,-1.203369141
11.34857114,-1.605459332,0.6291726828,-1.019198656
11.35412614,-1.572015405,0.2626643181,-0.9691091776
11.35968114,-1.520398855,0.05986303091,-1.019198656
11.36523614,-1.438698053,0.01343864016,-1.107466102
11.37079114,-1.280030489,0.1751604527,-1.19924593
11.37634614,-0.9497147799,0.7143858671,-1.273158431
11.38190114,-0.434006989,1.575985909,-1.330730796
11.38745614,0.005955760833,2.121930599,-1.388761282
11.39301114,0.3113794029,2.194316149,-1.451831222
11.39856614,0.4955498278,1.877591729,-1.523453116
11.40412114,0.5752654076,1.322484374,-1.607444525
11.40967614,0.5755708218,0.6439857483,-1.702431321
11.41523114,0.5511369109,-0.07864658535,-1.791004181
11.42078614,0.5239542127,-0.7698202729,-1.836665034
11.42634114,0.5050179958,-1.367839694,-1.827654958
11.43189614,0.5050179958,-1.853921413,-1.78321588
11.43745114,0.5323534012,-2.216001034,-1.730835676
11.44300614,0.5822901726,-2.459576607,-1.685022116
11.44856114,0.6439857483,-2.62511611,-1.641346574
11.45411614,0.7038487792,-2.746674776,-1.58423233
11.45967114,0.7626428008,-2.840592384,-1.515053868
11.46522614,0.8162446618,-2.920155287,-1.443126678
11.47078114,0.8626690507,-2.990860939,-1.373642802
11.47633614,0.8951966763,-3.070881844,-1.297744989
11.48189114,0.914591074,-3.153957129,-1.211157441
11.48744614,0.929556787,-3.222372055,-1.114643574
11.49300114,0.9478822351,-3.254594088,-1.018740535
11.49855614,0.976744771,-3.213361979,-0.9246700406
11.50411114,1.032789946,-3.095773935,-0.8383878469
11.50966614,1.116781473,-2.912367105,-0.7661551833
11.51522114,1.216349602,-2.679786921,-0.7073611021
11.52077614,1.326149344,-2.399408102,-0.6468872428
11.52633114,1.443126678,-2.071993828,-0.587176919
11.53188614,1.570946455,-1.68792367,-0.535713017
11.53744114,1.703958392,-1.258803487,-0.4859289825
11.54299614,1.834221601,-0.7992936373,-0.4199574888
11.54855114,1.949366331,-0.3240544796,-0.3361186981
11.55410614,2.028623819,0.1685938388,-0.2400629669
11.55966114,2.034732103,0.7296570539,-0.1287360638
11.56521614,1.964484811,1.307213187,-0.006719320081
11.57077114,1.822920918,1.838344812,0.09834641218
11.57632614,1.604237556,2.286095858,0.173633337
11.58188114,1.316070437,2.644968748,0.2107423097
11.58743614,0.9559759498,2.922293186,0.1951656938
11.59299114,0.5522059202,3.108448982,0.1331647038
11.59854614,0.1394258887,3.178543806,0.04184303805
11.60410114,-0.2553341687,3.132882833,-0.05558710173
11.60965614,-0.6180247068,2.976964235,-0.1391204596
11.61521114,-0.9370396733,2.70116663,-0.2063136548
11.62076614,-1.200009465,2.302588701,-0.2660239935
11.62632114,-1.412126184,1.804442763,-0.3263451457
11.63187614,-1.573237062,1.244143128,-0.3880407214
11.63743114,-1.689756274,0.6723901033,-0.4448495209
11.64298614,-1.778329134,0.1415638477,-0.4885250926
11.64854114,-1.847965717,-0.3096995652,-0.5063923597
11.65409614,-1.896528006,-0.6743753552,-0.500436604
11.65965114,-1.924168825,-0.9376505613,-0.4785988331
11.66520614,-1.936538577,-1.100594044,-0.4475983381
11.67076114,-1.938676476,-1.185654521,-0.4127800465
11.67631614,-1.935164094,-1.207645059,-0.382543087
11.68187114,-1.935927629,-1.210088372,-0.3599417508
11.68742614,-1.943257809,-1.21696043,-0.3486410677
11.69298114,-1.969066143,-1.23727107,-0.3504736125
11.69853614,-2.012283564,-1.271325827,-0.366966486
11.70409114,-2.069703341,-1.312252641,-0.3994941115
11.70964614,-2.137354612,-1.353332043,-0.4469874799
11.71520114,-2.209587336,-1.409988165,-0.5111264586
11.72075614,-2.273420811,-1.489551067,-0.5876350403
11.72631114,-2.327022552,-1.592020631,-0.6690304875
11.73186614,-2.380013704,-1.716480851,-0.7418739796
11.73742114,-2.430103064,-1.875301123,-0.7985301018
11.74297614,-2.473778725,-2.054584742,-0.8298360109
11.74853114,-2.40261507,-2.048629045,-0.8141067028
11.75408614,-1.889808655,-1.307518601,-0.6479562521
11.75964114,-1.044701576,-0.09468132257,-0.3474193811
11.76519614,-0.3484883606,0.6714738607,-0.06856760383
11.77075114,0.06184828654,0.8192988634,0.1174353883
11.77630614,0.2231119573,0.4880669713,0.2112004459
11.78186114,0.1885990947,-0.1608055383,0.2040229887
11.78741614,0.02672456764,-0.9532271624,0.1047603041
11.79297114,-0.153475374,-1.68685472,-0.04886778072
11.79852614,-0.2255553454,-2.177670479,-0.1815743446
11.80408114,-0.1171299592,-2.34641695,-0.1863084137
11.80963614,0.1408002973,-2.235242844,-0.06597150117
11.81519114,0.4689779878,-1.938981891,0.1049130186
11.82074614,0.779135704,-1.549108624,0.2770192325
11.82630114,1.024390817,-1.109909415,0.4387410581
11.83185614,1.211615562,-0.6383354068,0.5957288146
11.83741114,1.353790283,-0.1334701329,0.7479824424
11.84296614,1.479319334,0.3956763148,0.8812998533
11.84852114,1.612942219,0.9119949341,0.9851438999
11.85407614,1.774816751,1.383416295,1.05859828
11.85963114,1.966928124,1.785964727,1.121515512
11.86518614,2.179502964,2.082072973,1.188708782
11.87074114,2.394215822,2.233562946,1.275143623
11.87629614,2.598849773,2.230355978,1.371810198
11.88185114,2.786837816,2.085737944,1.469851255
11.88740614,2.944283724,1.842926145,1.567281365
11.89296114,3.051334858,1.568808436,1.656923175
11.89851614,3.100355148,1.318361044,1.72594893
11.90407114,3.092261553,1.114643574,1.758934736
11.90962614,3.02888608,0.9521581531,1.756796718
11.91518114,2.93298316,0.8206732869,1.718007922
11.92073614,2.829291821,0.6994200945,1.667307615
11.92629114,2.72773838,0.5691569448,1.613858461
11.93184614,2.642983437,0.4220954478,1.570641041
11.93740114,2.572125196,0.2567085624,1.548497796
11.94295614,2.513942003,0.06581879407,1.538113356
11.94851114,2.467211962,-0.1831014603,1.526507258
11.95406614,2.426132679,-0.5015056133,1.501462579
11.95962114,2.376959324,-0.8803836107,1.456870675
11.96517614,2.294342279,-1.288429618,1.3930372
11.97073114,2.142546654,-1.681967974,1.333479524
11.97628614,1.873315811,-2.165300846,1.260330558
11.98184114,1.430604339,-2.890529156,1.192221165
11.98739614,0.9165763259,-3.523825169,1.172521353
11.99295114,0.4043808877,-3.861929178,1.193442822
11.99850614,-0.0809372589,-3.885904789,1.243837714
12.00406114,-0.4979932308,-3.600639105,1.299424887
12.00961614,-0.8564078808,-3.099591732,1.368908763
12.01517114,-1.148240089,-2.310224295,1.446486354
12.02072614,-1.35394299,-1.13357985,1.506043911
12.02628114,-1.385707021,0.8719844818,1.567128658
12.03183614,-0.9651386738,3.885752201,1.681204319
12.03739114,-0.3816268146,5.681643009,1.83269453
12.04294614,-0.02076880634,6.10557127,1.957154632
12.04850114,0.1858502775,5.599637032,2.034579515
12.05405614,0.3814741075,4.441775799,2.0692451
12.05961114,0.6352811456,3.029955149,2.082989216
12.06516614,0.8710681796,1.769777179,2.100551128
12.07072114,1.015228152,0.8058602214,2.109408379
12.07627614,1.065164924,0.1003316641,2.077033281
12.08183114,1.037982225,-0.3741439581,1.981893897
12.08738614,0.9396358132,-0.6284091473,1.833610773
12.09294114,0.7698202729,-0.7637118101,1.658755779
12.09849614,0.5720584393,-0.8698465228,1.479777455
12.10405114,0.3865135908,-0.9422318935,1.326302052
12.10960614,0.2252499312,-0.9758284688,1.21848762
12.11516114,0.1181989461,-0.9390249252,1.155722976
12.12071614,0.08964183182,-0.7392778993,1.147629261
12.12627114,0.1301104724,-0.4373666346,1.181378603
12.13182614,0.2261662036,-0.1171299592,1.246433854
12.13738114,0.3643703759,0.1718007922,1.324927688
12.14293614,0.5199837089,0.4359922409,1.392579079
12.14849114,0.6533011198,0.6694886088,1.447708011
12.15404614,0.747371614,0.8586985469,1.485733271
12.15960114,0.789672792,1.021183848,1.505433083
12.16515614,0.7606575489,1.146560311,1.513068676
12.17071114,0.6699467301,1.209630251,1.510930657
12.17626614,0.532047987,1.199704051,1.501309872
12.18182114,0.3900259733,1.110367656,1.479319334
12.18737614,0.275950253,0.9503256083,1.429840684
12.19293114,0.1977618039,0.7324058414,1.377307892
12.19848614,0.1620272398,0.4984513521,1.324316859
12.20404114,0.1452289373,0.2644968629,1.294232607
12.20959614,0.142327413,0.09865183383,1.249335408
12.21515114,0.1495048702,0.003054236295,1.18779254
12.22070614,0.1542389393,-0.0516165942,1.125333309
12.22626114,0.1594311297,-0.1062874198,1.061957955
12.23181614,0.1831014603,-0.1658450365,0.9721634388
12.23737114,0.2020377368,-0.2486148328,0.8860339522
12.24292614,0.2189887464,-0.3382566571,0.7893673778
12.24848114,0.2383831441,-0.451721549,0.6615476012
12.25403614,0.2499892414,-0.5741963983,0.5068505406
12.25959114,0.2341072112,-0.6609367132,0.3445178568
12.26514614,0.1805053651,-0.6952968836,0.1818797737
12.27070114,0.102316916,-0.6936170459,0.01756185852
12.27625614,0.001527118147,-0.6583406329,-0.1514901221
12.28181114,-0.1215586066,-0.5998520255,-0.3220692277
12.28736614,-0.27350685,-0.520136416,-0.4999784827
12.29292114,-0.4443913698,-0.4124746025,-0.6957550049
12.29847614,-0.6284091473,-0.2742704153,-0.9087880254
12.30403114,-0.8108997345,-0.1116323397,-1.132663488
12.30958614,-0.9739959836,0.07437065244,-1.360509515
12.31514114,-1.106855273,0.2706053257,-1.583774209
12.32069614,-1.216196895,0.4694361091,-1.799097896
12.32625114,-1.308892965,0.6942279339,-1.97548008
12.33180614,-1.414569497,0.9455915689,-2.106659412
12.33736114,-1.543763757,1.277128935,-2.197217703
12.34291614,-1.66501689,1.829334855,-2.281972647
12.34847114,-1.720298648,2.570750713,-2.410556078
12.35402614,-1.69571197,3.214278221,-2.534863472
12.35958114,-1.675248623,3.518480301,-2.599155188
12.36513614,-1.7097615,3.351108074,-2.617022276
12.37069114,-1.771457076,2.820281744,-2.564031363
12.37624614,-1.853157878,2.223178625,-2.436822414
12.38180114,-1.946159363,1.780925155,-2.216612101
12.38735614,-1.981283069,1.473516345,-1.923557997
12.39291114,-1.910577536,1.364174604,-1.658755779
12.39846614,-1.691588759,1.555675268,-1.451983929
12.40402114,-1.371199369,1.879577041,-1.366007209
12.40957614,-1.090820551,2.026027679,-1.447555304
12.41513114,-0.9271134138,1.891793966,-1.625159144
12.42068614,-0.8258655071,1.579956412,-1.784742951
12.42624114,-0.7356128097,1.229024649,-1.863542318
12.43179614,-0.6158867478,0.8880192041,-1.859877229
12.43735114,-0.462564081,0.5424323678,-1.814979911
12.44290614,-0.2930539846,0.1915006191,-1.776343822
12.44846114,-0.131332159,-0.1438545287,-1.769319057
12.45401614,0.01603474095,-0.4537068009,-1.793753028
12.45957114,0.1498102844,-0.7279772162,-1.837581277
12.46512614,0.2693836391,-0.9707890153,-1.891030431
12.47068114,0.3689517379,-1.1929847,-1.943257809
12.47623614,0.4393518865,-1.39929831,-1.984490037
12.48179114,0.4776825607,-1.596907496,-2.004953384
12.48734614,0.4862344265,-1.794211149,-2.000983
12.49290114,0.4720322192,-1.990445852,-1.9780761
12.49845614,0.4410317242,-2.181335449,-1.93272078
12.50401114,0.3972034156,-2.37711215,-1.857891917
12.50956614,0.3489464819,-2.565253019,-1.762752533
12.51512114,0.2991624475,-2.737511873,-1.658297539
12.52067614,0.2597627938,-2.881519318,-1.559645772
12.52623114,0.235939756,-2.984141588,-1.478097677
12.53178614,0.2257080674,-3.025679111,-1.396549582
12.53734114,0.2237228155,-3.015905619,-1.311641812
12.54289614,0.2296785712,-2.970855713,-1.221389055
12.54845114,0.2423536479,-2.890529156,-1.129456639
12.55400614,0.2640387416,-2.764694691,-1.037371397
12.55956114,0.2964136302,-2.601293087,-0.942995429
12.56511614,0.3353551328,-2.400935173,-0.8510629535
12.57067114,0.3822376728,-2.152625799,-0.774248898
12.57622614,0.4395045936,-1.845522285,-0.7175928354
12.58178114,0.5062396526,-1.487107635,-0.6775823236
12.58733614,0.5745018721,-1.100899458,-0.6332958937
12.59289114,0.6328377724,-0.7133168578,-0.5806103349
12.59844614,0.6812474132,-0.3310792148,-0.5170822144
12.60400114,0.7154548764,0.03176405653,-0.4465293586
12.60955614,0.7314895988,0.3616215885,-0.3703261614
12.61511114,0.7252284288,0.6620057225,-0.2968717813
12.62066614,0.692242682,0.9179506898,-0.2333436459
12.62622114,0.6297835112,1.124722481,-0.1795890927
12.63177614,0.5344913602,1.27270031,-0.1302631795
12.63733114,0.4042281806,1.369977713,-0.09330692142
12.64288614,0.2412846684,1.431367874,-0.07605048269
12.64844114,0.06001574174,1.466033459,-0.08017370105
12.65399614,-0.1353026628,1.48680222,-0.09361234307
12.65955114,-0.3382566571,1.488482118,-0.1064401343
12.66510614,-0.5413633585,1.448929667,-0.1192679256
12.67066114,-0.7380561829,1.337602735,-0.1334701329
12.67621614,-0.9202414155,1.149003744,-0.1456870735
12.68177114,-1.085322857,0.8903098702,-0.1650814712
12.68732614,-1.232995152,0.591452837,-0.1867665499
12.69288114,-1.360356808,0.289388895,-0.2041756958
12.69843614,-1.465880752,0.015423893,-0.2125748396
12.70399114,-1.5503304,-0.2264716178,-0.2089097649
12.70954614,-1.606833696,-0.3955236077,-0.1944021434
12.71510114,-1.645164371,-0.4859289825,-0.1754658818
12.72065614,-1.672194362,-0.501047492,-0.1482831687
12.72621114,-1.697849989,-0.4422534108,-0.115755558
12.73176614,-1.721520305,-0.3197785318,-0.08490777016
12.73732114,-1.752368093,-0.1298050433,-0.05757235363
12.74287614,-1.784742951,0.09895725548,-0.03054236248
12.74843114,-1.823684454,0.3339807391,-0.008857285604
12.75398614,-1.872704983,0.5667135715,-0.004123218823
12.75954114,-1.927070379,0.7855495811,-0.02229592577
12.76509614,-1.986628056,0.9651386738,-0.06139015034
12.77065114,-2.051988602,1.095249176,-0.1302631795
12.77620614,-2.111851692,1.150683522,-0.2173089087
12.78176114,-2.155527353,1.119683027,-0.3078670204
12.78731614,-2.151862144,1.03462255,-0.4059080184
12.79287114,-1.905385256,0.9652913809,-0.5421269536
12.79842614,-1.143353343,0.8579349518,-0.7140804529
12.80398114,-0.3208475113,0.5465555787,-0.8223531246
12.80953614,0.3037438095,0.1151447073,-0.8747332692
12.81509114,0.6435275674,-0.3025220931,-0.9194778204
12.82064614,0.6904101372,-0.6523848772,-0.9877400398
12.82620114,0.4653128982,-0.9394831061,-1.078756213
12.83175614,0.08338065445,-1.185501814,-1.166565537
12.83731114,-0.3506263196,-1.391204596,-1.234064221
12.84286614,-0.7623373866,-1.54880321,-1.269187927
12.84842114,-1.113879919,-1.658144832,-1.265217423
12.85397614,-1.364327312,-1.717855215,-1.22841382
12.85953114,-1.496117592,-1.768860936,-1.175422788
12.86508614,-1.51963532,-1.835595965,-1.110062122
12.87064114,-1.416249394,-1.909203053,-1.02316916
12.87619614,-1.136633992,-1.967386365,-0.894127667
12.88175114,-0.6846070886,-1.98540628,-0.71423316
12.88730614,-0.1762294322,-1.969676971,-0.5068505406
12.89286114,0.253348887,-1.9603616,-0.3096995652
12.89841614,0.5431959033,-1.970593214,-0.1450762302
12.90397114,0.6908682585,-1.979145169,-0.02351761982
12.90952614,0.723395884,-1.961125135,0.06108472496
12.91508114,0.6772769094,-1.878813505,0.1217113137
12.92063614,0.5974085927,-1.717855215,0.1756185889
12.92619114,0.5137225389,-1.492452621,0.2397575527
12.93174614,0.4466820657,-1.213600755,0.3342861533
12.93730114,0.4078932703,-0.8930587173,0.4475983381
12.94285614,0.4062134326,-0.5723638535,0.5648810267
12.94841114,0.4344651103,-0.2932066917,0.6864396334
12.95396614,0.4905103445,-0.06658235192,0.8032641411
12.95952114,0.5700731874,0.10353861,0.9116895199
12.96507614,0.6769714952,0.2105895877,1.011410356
12.97063114,0.8107470274,0.267092973,1.094485521
12.97618614,0.9822424054,0.2909159958,1.165343881
12.98174114,1.182142138,0.3095468581,1.215738773
12.98729614,1.398229361,0.3239017725,1.250404358
12.99285114,1.620730519,0.3287885487,1.276212692
12.99840614,1.835748672,0.304812789,1.302326322
13.00396114,2.033510447,0.2399102598,1.335312128
13.00951614,2.216917515,0.1426328421,1.37791872
13.01507114,2.388412714,0.03359659761,1.433353066
13.02062614,2.542651653,-0.07116370648,1.497644782
13.02618114,2.677954435,-0.1635543555,1.560714722
13.03173614,2.795695305,-0.2338017821,1.612942219
13.03729114,2.890529156,-0.267092973,1.654479742
13.04284614,2.947948933,-0.2307475507,1.689145327
13.04840114,2.962456465,-0.09101624042,1.721825719
13.05395614,2.931761503,0.1374406368,1.750230074
13.05951114,2.876327038,0.4132381678,1.771457076
13.06506614,2.802872658,0.6771242023,1.776343822
13.07062114,2.724378824,0.8916842937,1.765195847
13.07617614,2.64756465,1.053406119,1.743816257
13.08173114,2.567238331,1.142742515,1.71449554
13.08728614,2.474847555,1.158471823,1.675859451
13.09284114,2.366116762,1.111283898,1.621341348
13.09839614,2.252957344,0.9990406632,1.555217147
13.10395114,2.137049198,0.8089144826,1.478861213
13.10950614,2.013963461,0.5523586273,1.382958174
13.11506114,1.875301123,0.2631224692,1.271478534
13.12061614,1.725338101,0.01847812906,1.158319116
13.12617114,1.546359777,-0.1637070626,1.071884274
13.13172614,1.31958282,-0.3576510847,1.02316916
13.13728114,1.04974103,-0.5934380889,0.9900307059
13.14283614,0.7661551833,-0.8379297256,0.949867487
13.14839114,0.4886777997,-1.017366052,0.9101623893
13.15394614,0.2168507725,-1.050962687,0.8929060102
13.15950114,-0.06597150117,-0.8733588457,0.8895463347
13.16505614,-0.3261924386,-0.2644968629,0.9123004079
13.17061114,-0.4634803534,0.9287932515,1.009272337
13.17616614,-0.398119688,2.293426037,1.199093223
13.18172114,-0.1794363856,3.292772055,1.418387294
13.18727614,0.07345438004,3.837800503,1.588813663
13.19283114,0.2997733057,3.916752577,1.714648247
13.19838614,0.493717283,3.596974134,1.826280594
13.20394114,0.6668924689,3.008270025,1.946006656
13.20949614,0.8247964978,2.301672459,2.079018593
13.21505114,0.9455915689,1.644095421,2.215848446
13.22060614,1.010799527,1.116628766,2.315569162
13.22616114,1.023016453,0.721257925,2.355579853
13.23171614,0.9843803644,0.4321744442,2.34794426
13.23727114,0.9110786915,0.2357870489,2.288691998
13.24282614,0.80799824,0.09208522737,2.19324708
13.24838114,0.6733064055,0.006872031838,2.092915535
13.25393614,0.5283828974,-0.020310672,1.998081326
13.25949114,0.3834593594,-0.01557660475,1.910424829
13.26504614,0.2594573796,0.004581354558,1.829945683
13.27060114,0.173480615,0.01007897966,1.768250108
13.27615614,0.1339282542,0.01389677543,1.735264301
13.28171114,0.1418692768,0.04932591692,1.712510347
13.28726614,0.1849340051,0.07589777559,1.709150672
13.29282114,0.2550287247,0.06841489673,1.725643516
13.29837614,0.3423798978,0.04596625641,1.73847127
13.30393114,0.4295783341,0.004581354558,1.736944199
13.30948614,0.4992149174,-0.0823116675,1.720909476
13.31504114,0.5399889946,-0.1976090819,1.686091185
13.32059614,0.5512896776,-0.3199312389,1.636001706
13.32615114,0.5370874405,-0.4231644273,1.579345584
13.33170614,0.5120427012,-0.4819584787,1.516122937
13.33726114,0.4816530645,-0.4726430774,1.448166132
13.34281614,0.4456130862,-0.3752129376,1.363411069
13.34837114,0.40270105,-0.2365505993,1.268882513
13.35392614,0.3501681983,-0.118962504,1.186112642
13.35948114,0.2991624475,-0.05512896553,1.122889996
13.36503614,0.258235693,-0.04138490185,1.067302823
13.37059114,0.2260134816,-0.081242688,1.015991688
13.37614614,0.1988307834,-0.1357607991,0.9617789984
13.38170114,0.160194695,-0.2035648525,0.903290391
13.38725614,0.09926267713,-0.2858765125,0.8351809382
13.39281114,0.02748812735,-0.3578037918,0.7389724851
13.39836614,-0.0421484597,-0.4326325655,0.6105418205
13.40392114,-0.1235438585,-0.5192201734,0.4705050886
13.40947614,-0.2099787444,-0.5896202922,0.3240544796
13.41503114,-0.2930539846,-0.6479562521,0.1609582454
13.42058614,-0.3625378609,-0.6699467301,-0.01710372418
13.42614114,-0.4265241027,-0.6193991303,-0.2082989216
13.43169614,-0.4895940721,-0.517998457,-0.4046863019
13.43725114,-0.5515950918,-0.3683409095,-0.6038225293
13.44280614,-0.6152759194,-0.1629435122,-0.8038749695
13.44836114,-0.6736118197,0.07406523079,-1.001178622
13.45391614,-0.7324058414,0.3127537966,-1.197566032
13.45947114,-0.7944068313,0.5352548957,-1.391204596
13.46502614,-0.8586985469,0.7414158583,-1.579192877
13.47058114,-0.9150491953,0.9350544214,-1.767486572
13.47613614,-0.9494093657,1.104259133,-1.950129867
13.48169114,-0.9578084946,1.238645554,-2.122846842
13.48724614,-0.943606317,1.325538516,-2.278002024
13.49280114,-0.9185615778,1.364632726,-2.403073072
13.49835614,-0.9064973593,1.367839694,-2.472098827
13.50391114,-0.9304730892,1.383263588,-2.497907162
13.50946614,-1.010494113,1.501309872,-2.531351089
13.51502114,-1.134801507,1.864916682,-2.613509893
13.52057614,-1.273005724,2.542499065,-2.719797373
13.52613114,-1.373490095,3.47266674,-2.810508251
13.53168614,-1.474279881,4.205378056,-2.860445023
13.53724114,-1.621799469,4.122760773,-2.886864185
13.54279614,-1.754505992,3.397990704,-2.902593374
13.54835114,-1.808718681,2.382457018,-2.884878874
13.55390614,-1.780925155,1.295912504,-2.817074776
13.55946114,-1.722894669,0.389262408,-2.735373974
13.56501614,-1.685938478,-0.1006370857,-2.636874914
13.57057114,-1.658144832,-0.1681357026,-2.478359938
13.57612614,-1.607902646,0.06047387794,-2.288081169
13.58168114,-1.527270913,0.3790307343,-2.126206636
13.58723614,-1.428924441,0.6954495907,-2.039618969
13.59279114,-1.321873426,0.9726215601,-2.026791096
13.59834614,-1.210852027,1.213906169,-2.039313555
13.60390114,-1.089904189,1.411668062,-2.033968687
13.60945614,-0.9546015263,1.542236567,-1.999150395
13.61501114,-0.7985301018,1.563158154,-1.939745426
13.62056614,-0.6236750484,1.429229856,-1.882325888
13.62612114,-0.4555393457,1.139993668,-1.844606042
13.63167614,-0.3042019308,0.7411104441,-1.831930876
13.63723114,-0.1666085869,0.2910687327,-1.834679723
13.64278614,-0.04352286831,-0.1634016484,-1.844147921
13.64834114,0.0560452342,-0.5951179266,-1.847202063
13.65389614,0.1334701329,-0.9849911928,-1.83116734
13.65945114,0.1898207814,-1.322178841,-1.799250603
13.66500614,0.2324273884,-1.606222868,-1.750230074
13.67056114,0.2648022771,-1.827960372,-1.691741467
13.67611614,0.2875563502,-1.997623205,-1.628366113
13.68167114,0.2994678617,-2.128191948,-1.555522561
13.68722614,0.3038965166,-2.238296986,-1.47901392
13.69278114,0.3078670204,-2.324884653,-1.393495321
13.69833614,0.3159607351,-2.389328957,-1.303853512
13.70389114,0.3339807391,-2.422162056,-1.217571259
13.70944614,0.3671191931,-2.415595531,-1.130678296
13.71500114,0.4152234197,-2.368712902,-1.04974103
13.72055614,0.4656183124,-2.285790443,-0.9738432169
13.72611114,0.5129590034,-2.173089027,-0.9039012194
13.73166614,0.558925271,-2.028623819,-0.8417475224
13.73722114,0.6003101468,-1.864153147,-0.7904363275
13.74277614,0.6348230243,-1.682273388,-0.7534800768
13.74833114,0.665518105,-1.486496806,-0.7240067124
13.75388614,0.6890357137,-1.283237338,-0.7021689415
13.75944114,0.7127060294,-1.074174881,-0.6736118197
13.76499614,0.7420266867,-0.8638907075,-0.625202179
13.77055114,0.7762341499,-0.6531484127,-0.5628957748
13.77610614,0.8075400591,-0.4379774928,-0.4981459379
13.78166114,0.8310576677,-0.2195995897,-0.4393518865
13.78721614,0.8481613994,0.006872031838,-0.3898732662
13.79277114,0.8553388715,0.240368396,-0.3489464819
13.79832614,0.856713295,0.4793623984,-0.3211529553
13.80388114,0.843274653,0.7122479081,-0.3071034551
13.80943614,0.8096780181,0.9116895199,-0.2999260128
13.81499114,0.7545490861,1.061347127,-0.2924431264
13.82054614,0.6765133142,1.153585076,-0.278088212
13.82610114,0.5816792846,1.184738278,-0.2577775419
13.83165614,0.4668400288,1.145644069,-0.2339545041
13.83721114,0.3393256664,1.053711534,-0.2139492482
13.84276614,0.2028012872,0.9232956171,-0.2089097649
13.84832114,0.05940489471,0.7484406233,-0.2199050188
13.85387614,-0.08750387281,0.5210527182,-0.2412846684
13.85943114,-0.2386885732,0.2414373755,-0.2791571915
13.86498614,-0.3985778391,-0.06352811307,-0.3248180151
13.87054114,-0.5665608048,-0.3663556576,-0.3637595475
13.87609614,-0.7340856791,-0.6152759194,-0.3810159862
13.88165114,-0.8896990418,-0.738819778,-0.3672719002
13.88720614,-1.037371397,-0.7062921524,-0.3335226178
13.89276114,-1.179393291,-0.5387672782,-0.2973299026
13.89831614,-1.314848781,-0.267092973,-0.2560977042
13.90387114,-1.439614296,0.0818535313,-0.2124221325
13.90942614,-1.546665311,0.4640912116,-0.1733279079
13.91498114,-1.639819503,0.8218950033,-0.144618094
13.92053614,-1.727017879,1.115559816,-0.1299577504
13.92609114,-1.82337904,1.341267824,-0.118962504
13.93164614,-1.926917672,1.492299795,-0.1185043678
13.93720114,-2.027402163,1.56285274,-0.131332159
13.94275614,-2.11719656,1.550024867,-0.1540862173
13.94831114,-2.199661016,1.458703279,-0.1823379099
13.95386614,-2.281208992,1.316681266,-0.2153236568
13.95942114,-2.365811348,1.141520858,-0.2593046725
13.96497614,-2.448428631,0.9294040799,-0.3071034551
13.97053114,-2.531503677,0.6942279339,-0.355665803
13.97608614,-2.603430986,0.4518742561,-0.4121691883
13.98164114,-2.649244547,0.2087570578,-0.4703523815
13.98719614,-2.658101797,-0.02473931387,-0.5254813433
13.99275114,-2.420940399,-0.01924168877,-0.5534276366
13.99830614,-1.523605824,0.6195518374,-0.4828747511
14.00386114,-0.391400367,1.309045672,-0.3222219348
14.00941614,0.4341596961,1.51963532,-0.1307213157
14.01497114,0.8961129189,1.310420036,0.02626643144
14.02052614,1.025307178,0.8099834919,0.1026223376
14.02608114,0.9002361298,0.1510319859,0.08490777016
14.03163614,0.6186355352,-0.554038465,-0.02290677279
14.03719114,0.2800734639,-1.170994163,-0.2082989216
14.04274614,-0.04352286831,-1.624701023,-0.4210264683
14.04830114,-0.3129065037,-1.894237399,-0.6123743653
14.05385614,-0.5184566379,-1.997623205,-0.7476770282
14.05941114,-0.6583406329,-1.967233539,-0.8159392476
14.06496614,-0.7211052179,-1.819408536,-0.8238802552
14.07052114,-0.7209524512,-1.578429341,-0.7893673778
14.07607614,-0.6668924689,-1.280794024,-0.7321004272
14.08163114,-0.5633538961,-0.9593356252,-0.662769258
14.08718614,-0.4213318825,-0.6430694461,-0.5752654076
14.09274114,-0.2414373755,-0.3524588645,-0.4651601911
14.09829614,-0.02626643144,-0.1204896197,-0.3274141252
14.10385114,0.2160872221,0.04230117425,-0.1698155403
14.10940614,0.4773771465,0.1371352077,-0.0004581354442
14.11496114,0.7353073955,0.1663031727,0.173633337
14.12051614,0.9646805525,0.131332159,0.3352024257
14.12607114,1.14976728,0.03665083647,0.4611896873
14.13162614,1.289956689,-0.09712471068,0.5535803437
14.13718114,1.398992896,-0.2602209449,0.6117635369
14.14273614,1.489551067,-0.4424061179,0.6485670805
14.14829114,1.575527787,-0.6389462352,0.6917845011
14.15384614,1.67173624,-0.8241856694,0.7547017932
14.15940114,1.781841397,-0.9758284688,0.8353336453
14.16495614,1.908592224,-1.086086392,0.9228374958
14.17051114,2.047865391,-1.147323847,1.010799527
14.17606614,2.192941666,-1.160915256,1.099983215
14.18162114,2.344737291,-1.120751977,1.19405365
14.18717614,2.49592185,-1.014922738,1.294385314
14.19273114,2.637333155,-0.8582404256,1.392120957
14.19828614,2.762403965,-0.6595623493,1.486191392
14.20384114,2.858765125,-0.4329380095,1.575833201
14.20939614,2.918780804,-0.1986780763,1.662115335
14.21495114,2.929317951,0.01832541823,1.744732499
14.22050614,2.894194365,0.1962346882,1.821088433
14.22606114,2.824557781,0.3232909143,1.876217365
14.23161614,2.734915972,0.3888042867,1.901414752
14.23717114,2.642219782,0.3935383558,1.902789235
14.24272614,2.560977221,0.3687990308,1.897444248
14.24828114,2.495616436,0.3301629424,1.903247356
14.25383614,2.432088375,0.2710634768,1.923252583
14.25939114,2.361840963,0.2368560284,1.934400558
14.26494614,2.267923117,0.2402156889,1.923252583
14.27050114,2.119029045,0.1731752008,1.888434291
14.27605614,1.84735477,-0.1594311297,1.824142575
14.28161114,1.483137131,-0.6334486008,1.771151662
14.28716614,1.11067307,-1.009577751,1.730682969
14.29272114,0.7638645172,-1.23314786,1.693726778
14.29827614,0.4236225784,-1.332563281,1.658603072
14.30383114,0.07131642103,-1.347223639,1.630198598
14.30938614,-0.2782409191,-1.269798756,1.61599648
14.31494114,-0.6114581227,-1.051726222,1.603932142
14.32049614,-0.907566309,-0.6575770974,1.59156251
14.32605114,-1.152668834,-0.03894151375,1.570641041
14.33160614,-1.290262103,1.186876178,1.560103893
14.33716114,-1.172368646,3.522450686,1.61599648
14.34271614,-0.8811471462,5.607425213,1.708692551
14.34827114,-0.622606039,6.513158798,1.790393353
14.35382614,-0.4587462842,6.367319107,1.859877229
14.35938114,-0.31153211,5.274360657,1.947991967
14.36493614,-0.09529217333,3.614230633,2.07184124
14.37049114,0.1620272398,1.811314821,2.246848822
14.37604614,0.4007157981,0.2449497581,2.44430542
14.38160114,0.5671716928,-0.8083036542,2.574721098
14.38715614,0.6288672686,-1.291178346,2.593657494
14.39271114,0.5741963983,-1.41701293,2.52356267
14.39826614,0.445002228,-1.436254621,2.400935173
14.40382114,0.2793098986,-1.412278891,2.247612476
14.40937614,0.1128540337,-1.347834468,2.080545664
14.41493114,-0.01221694518,-1.236660242,1.925237894
14.42048614,-0.07040014863,-1.072495103,1.795127392
14.42604114,-0.08506047726,-0.869541049,1.692046881
14.43159614,-0.07773031294,-0.6525375843,1.632336617
14.43715114,-0.05238015205,-0.4324798584,1.606222868
14.44270614,-0.01710372418,-0.2351761907,1.602099657
14.44826114,0.02596100792,-0.09819369763,1.596602082
14.45381614,0.08750387281,-0.04443913698,1.583468795
14.45937114,0.1615691036,-0.03833066672,1.555980682
14.46492614,0.2376195788,-0.04779879749,1.523911238
14.47048114,0.3118375242,-0.07192726433,1.492605329
14.47603614,0.373685807,-0.1203369126,1.469545841
14.48159114,0.4164451063,-0.162332654,1.470767498
14.48714614,0.4475983381,-0.1843231618,1.474432588
14.49270114,0.4700469673,-0.1939440072,1.471683741
14.49825614,0.4779879749,-0.1743968874,1.455801725
14.50381114,0.4596625566,-0.1217113137,1.428008199
14.50936614,0.4130854607,-0.02336490713,1.379445791
14.51492114,0.3335226178,0.07269082218,1.326912999
14.52047614,0.2457133085,0.1539335102,1.268271565
14.52603114,0.1751604527,0.2325800955,1.198787689
14.53158614,0.1291942,0.3060344756,1.112047434
14.53714114,0.09972081333,0.3458922505,1.02057302
14.54269614,0.09407047927,0.3490992188,0.9187142849
14.54825114,0.09468132257,0.2976353168,0.8142594099
14.55380614,0.09223793447,0.1939440072,0.709346354
14.55936114,0.07559234649,0.06215370819,0.5952706337
14.56491614,0.02672456764,-0.1101052165,0.4943281412
14.57047114,-0.04566083103,-0.30267483,0.4002576768
14.57602614,-0.1029277667,-0.4498890042,0.2817533016
14.58158114,-0.1415638477,-0.558925271,0.162332654
14.58713614,-0.1589729935,-0.6290199757,0.04153761268
14.59269114,-0.1620272398,-0.62046808,-0.09223793447
14.59824614,-0.1789782494,-0.5413633585,-0.2301367074
14.60380114,-0.2338017821,-0.4312581718,-0.3533751369
14.60935614,-0.3150444627,-0.2310529798,-0.4871506989
14.61491114,-0.4144598544,0.09254335612,-0.6503996253
14.62046614,-0.5216635466,0.5170822144,-0.8522846103
14.62602114,-0.6468872428,0.9565867782,-1.070204377
14.63157614,-0.767835021,1.358371615,-1.296828747
14.63713114,-0.8745805621,1.684716702,-1.528950691
14.64268614,-0.9480349422,1.872399569,-1.7603091
14.64824114,-0.9738432169,1.89836061,-1.998844981
14.65379614,-0.9591829181,1.792073131,-2.222720385
14.65935114,-0.9379559755,1.595227599,-2.386885643
14.66490614,-0.9530744553,1.400520086,-2.509360552
14.67046114,-1.008508801,1.337602735,-2.635195017
14.67601614,-1.083490372,1.514901161,-2.793404579
14.68157114,-1.16381669,1.98952949,-2.947185278
14.68712614,-1.224290609,2.940313339,-3.047975063
14.69268114,-1.315306902,3.822834969,-3.075310469
14.69823614,-1.493826985,3.984862089,-3.067980289
14.70379114,-1.730530262,3.557269096,-3.025373697
14.70934614,-1.875606537,2.938938856,-2.881061077
14.71490114,-1.776343822,2.334047318,-2.663904905
14.72045614,-1.396549582,1.972273111,-2.430866718
14.72601114,-0.9347490072,1.683036923,-2.211877823
14.73156614,-0.6090146899,1.217571259,-2.067412615
14.73712114,-0.4619532526,0.7727217674,-2.002815485
14.74267614,-0.4275930822,0.4879142344,-1.967997193
14.74823114,-0.4254551232,0.3052709103,-1.922183633
14.75378614,-0.4016320705,0.1710372269,-1.854990363
14.75934114,-0.3413109183,0.04749337584,-1.790851474
14.76489614,-0.2489202619,-0.0838387832,-1.753284335
14.77045114,-0.1296523362,-0.2089097649,-1.751604557
14.77600614,0.005955760833,-0.3205420971,-1.777565479
14.78156114,0.1462979168,-0.4219427407,-1.811467528
14.78711614,0.2840439677,-0.5037962794,-1.860946178
14.79267114,0.4088095427,-0.5719057322,-1.918365836
14.79822614,0.5076140761,-0.649330616,-1.969676971
14.80378114,0.571600318,-0.7420266867,-1.997775912
14.80933614,0.6094728708,-0.8483141065,-1.999303102
14.81489114,0.6256603003,-0.9616262913,-1.973494768
14.82044614,0.6308525205,-1.078756213,-1.927681208
14.82600114,0.6306998134,-1.197566032,-1.873315811
14.83155614,0.6239804626,-1.311030984,-1.816201568
14.83711114,0.6270347238,-1.413805962,-1.752215385
14.84266614,0.6410841942,-1.501157165,-1.688229084
14.84822114,0.6644490957,-1.582094431,-1.615385532
14.85377614,0.6971294284,-1.660893679,-1.531394124
14.85933114,0.740957737,-1.735264301,-1.44098866
14.86488614,0.7835643291,-1.806580782,-1.3446275
14.87044114,0.8200624585,-1.863542318,-1.238492846
14.87599614,0.8507575393,-1.902483821,-1.131136417
14.88155114,0.8759549856,-1.915006161,-1.040120125
14.88710614,0.8977927566,-1.899887681,-0.969720006
14.89266114,0.9072608948,-1.87285769,-0.9115368128
14.89821614,0.9014578462,-1.839261055,-0.8553388715
14.90377114,0.88511765,-1.788713455,-0.7974610925
14.90932614,0.8612946272,-1.713732004,-0.7404996157
14.91488114,0.8376243114,-1.610498786,-0.6907155514
14.92043614,0.8214368224,-1.473210931,-0.661242187
14.92599114,0.8089144826,-1.296523333,-0.645054698
14.93154614,0.8050966859,-1.087308168,-0.6371136904
14.93710114,0.8064711094,-0.8478559852,-0.6293253899
14.94265614,0.8136485219,-0.5763344169,-0.6178719997
14.94821114,0.8292251825,-0.2837385535,-0.5971031785
14.95376614,0.8493831158,0.02305948362,-0.5662553906
14.95932114,0.8670976758,0.3358132839,-0.5236487985
14.96487614,0.8832851648,0.642916739,-0.4723376334
14.97043114,0.8864920735,0.9281824231,-0.4178195298
14.97598614,0.8683193922,1.164885759,-0.3654393852
14.98154114,0.8231166601,1.323400617,-0.317945987
14.98709614,0.7481352091,1.400978208,-0.2707580328
14.99265114,0.645054698,1.400214672,-0.2263189107
14.99820614,0.5167768002,1.337450027,-0.19119519
15.00376114,0.3643703759,1.220472813,-0.1705790907
15.00931614,0.1805053651,1.033706307,-0.1675248593
15.01487114,-0.02565558441,0.783411622,-0.1766875684
15.02042614,-0.2344126403,0.5184566379,-0.1901262105
15.02598114,-0.4362976551,0.2652604282,-0.193485871
15.03153614,-0.6314633489,0.0392469354,-0.1789782494
15.03709114,-0.8189934492,-0.1421747059,-0.1430909634
15.04264614,-1.002705812,-0.2396048307,-0.09407047927
15.04820114,-1.180309653,-0.2611372173,-0.04398100078
15.05375614,-1.350736022,-0.2052446753,-0.001221694518
15.05931114,-1.508029222,-0.06688777357,0.03405473381
15.06486614,-1.64882946,0.1348445266,0.05772506446
15.07042114,-1.772373319,0.3574983478,0.07360709459
15.07597614,-1.881104112,0.5775560737,0.08643488586
15.08153114,-1.974258304,0.7902836204,0.09697200358
15.08708614,-2.057333469,0.9828532338,0.09987352788
15.09264114,-2.136590958,1.129609346,0.09208522737
15.09819614,-2.209129095,1.217265844,0.07009471953
15.10375114,-2.265937805,1.243226886,0.04489727318
15.10930614,-2.307475567,1.223068953,0.01847812906
15.11486114,-2.338017941,1.168092728,-0.01603474095
15.12041614,-2.366575003,1.083337665,-0.06719319522
15.12597114,-2.389634371,0.9678874612,-0.1305686086
15.13152614,-2.40001893,0.8196043372,-0.1995943487
15.13708114,-2.405363798,0.6549809575,-0.2718270421
15.14263614,-2.408876181,0.4967715442,-0.3390202224
15.14819114,-2.409028769,0.3520007432,-0.4019374847
15.15374614,-2.331909418,0.2509055138,-0.4773771465
15.15930114,-1.745954156,0.2125748396,-0.5887040496
15.16485614,-0.8987090588,0.03497100621,-0.6736118197
15.17041114,-0.2454078794,-0.2838912606,-0.6991146803
15.17596614,0.1566823274,-0.5755708218,-0.7015580535
15.18152114,0.3495573401,-0.7527165413,-0.7240067124
15.18707614,0.3753656447,-0.7924215794,-0.7805100679
15.19263114,0.3009949923,-0.7475243211,-0.8638907075
15.19818614,0.1711899489,-0.6609367132,-0.9497147799
15.20374114,0.01908897609,-0.5566345453,-1.027292371
15.20929614,-0.1368297935,-0.4741701782,-1.085017443
15.21485114,-0.2942756712,-0.4479037523,-1.109451294
15.22040614,-0.4405735731,-0.4724903405,-1.102273822
15.22596114,-0.5712949038,-0.5505260825,-1.083643079
15.23151614,-0.6775823236,-0.6768187881,-1.05966723
15.23707114,-0.7556180358,-0.8425110579,-1.032942772
15.24262614,-0.8003626466,-1.03095746,-1.00285852
15.24818114,-0.7808154821,-1.186112642,-0.9604045749
15.25373614,-0.6558972597,-1.258498073,-0.8930587173
15.25929114,-0.395981729,-1.21589148,-0.7802046537
15.26484614,-0.0545181185,-1.091278672,-0.6282563806
15.27040114,0.2689255178,-0.9510892034,-0.4663818777
15.27595614,0.4850127101,-0.8522846103,-0.3235963285
15.28151114,0.5688515306,-0.8083036542,-0.218072474
15.28706614,0.5303681493,-0.7944068313,-0.1524063945
15.29262114,0.3988832533,-0.7933378816,-0.118962504
15.29817614,0.2176143378,-0.7798992395,-0.09330692142
15.30373114,0.03695625812,-0.7337802649,-0.05192201585
15.30928614,-0.1026223376,-0.6424586177,0.006261184346
15.31484114,-0.1759240031,-0.5111264586,0.07314895838
15.32039614,-0.1769929975,-0.3712424338,0.1415638477
15.32595114,-0.1068982705,-0.2568612695,0.2209739983
15.33150614,0.02611372061,-0.1885990947,0.3113794029
15.33706114,0.2032594234,-0.1707318127,0.4077405334
15.34261614,0.4059080184,-0.1980672181,0.5041016936
15.34817114,0.6223006248,-0.2687727809,0.5934380889
15.35372614,0.8399149776,-0.38498649,0.6717792749
15.35928114,1.052031636,-0.5352548957,0.73820889
15.36483614,1.251931429,-0.6960604787,0.8086090684
15.37039114,1.439614296,-0.8374716043,0.8816053271
15.37594614,1.619050622,-0.9277243018,0.9588775039
15.38150114,1.790851474,-0.9483403563,1.040120125
15.38705614,1.952878714,-0.8933641315,1.130678296
15.39261114,2.102994442,-0.7624900937,1.221999884
15.39816614,2.244710922,-0.5656445622,1.30919838
15.40372114,2.384900331,-0.2993151546,1.390746474
15.40927614,2.520203114,0.03497100621,1.467102408
15.41483114,2.647717476,0.433701545,1.543916464
15.42038614,2.761793137,0.8903098702,1.623937488
15.42594114,2.845326424,1.39670229,1.705027461
15.43149614,2.880755663,1.915616989,1.777260065
15.43705114,2.842730522,2.398339033,1.828724027
15.44260614,2.729570866,2.772941113,1.860182643
15.44816114,2.563267708,2.993151665,1.873010397
15.45371614,2.360619307,3.035147429,1.8592664
15.45927114,2.147738934,2.957875252,1.833152652
15.46482614,1.937912941,2.788517714,1.8108567
15.47038114,1.741220117,2.527533293,1.795585513
15.47593614,1.572320819,2.197828531,1.772678733
15.48149114,1.440683246,1.830709219,1.724421859
15.48704614,1.347834468,1.464048147,1.654479742
15.49260114,1.27010417,1.100441337,1.552162886
15.49815614,1.196191669,0.7438592315,1.416402102
15.50371114,1.131441832,0.4408790171,1.260177851
15.50926614,1.059056401,0.1772984117,1.102121115
15.51482114,0.9561286569,-0.1325538605,0.9605573416
15.52037614,0.812274158,-0.5033381581,0.838998735
15.52593114,0.6239804626,-0.9240592122,0.7415685654
15.53148614,0.3852919042,-1.395022392,0.6589514613
15.53704114,0.08063183725,-1.994569063,0.5725166202
15.54259614,-0.318251431,-2.834636688,0.4943281412
15.54815114,-0.6972821355,-3.655309916,0.442864269
15.55370614,-0.9567395449,-4.180333138,0.3975088596
15.55926114,-1.084559321,-4.306625843,0.3550549746
15.56481614,-1.122889996,-4.04579401,0.3286358118
15.57037114,-1.101204872,-3.365157604,0.3596363366
15.57592614,-0.9226847887,-1.535364628,0.511737287
15.58148114,-0.4721849263,1.894237399,0.8214368224
15.58703614,-0.03833066672,4.675271988,1.121668339
15.59259114,0.2127275616,6.118093491,1.296523333
15.59814614,0.2779355049,6.596234322,1.355164647
15.60370114,0.215781793,6.317993164,1.323706031
15.60925614,0.1152974218,5.524044514,1.254680276
15.61481114,0.00900999736,4.408942699,1.172979474
15.62036614,-0.07345438004,3.171977043,1.098303318
15.62592114,-0.07269082218,2.053973913,1.013395548
15.63147614,0.004581354558,1.257429123,0.9060391784
15.63703114,0.08842013776,0.7230904698,0.7954758406
15.64258614,0.1548497826,0.3779617548,0.6978929639
15.64814114,0.1876828223,0.1655396074,0.62306422
15.65369614,0.1818797737,0.03420744836,0.5793886185
15.65925114,0.1417165697,-0.02779355086,0.5593833923
15.66480614,0.0809372589,-0.01481304597,0.5577035546
15.67036114,0.01191152167,0.06215370819,0.5712949038
15.67591614,-0.06337540597,0.1791309565,0.5894675851
15.68147114,-0.1421747059,0.3000787199,0.5896202922
15.68702614,-0.2179197669,0.3961344361,0.5483881235
15.69258114,-0.2808370292,0.4456130862,0.4750864506
15.69813614,-0.3280249834,0.4614951015,0.3891097009
15.70369114,-0.3486410677,0.4640912116,0.3009949923
15.70924614,-0.3474193811,0.4640912116,0.2243336588
15.71480114,-0.3329117596,0.4514161348,0.1704263836
15.72035614,-0.3051182032,0.4384356141,0.1320957243
15.72591114,-0.2699944973,0.438282907,0.09605573118
15.73146614,-0.2350234836,0.4454603493,0.05344913527
15.73702114,-0.2064663768,0.4521796703,0.002596100792
15.74257614,-0.1893626451,0.4592044353,-0.05818320066
15.74813114,-0.1823379099,0.4735593498,-0.1223221645
15.75368614,-0.1844758689,0.5033381581,-0.1885990947
15.75924114,-0.1933331639,0.5479300022,-0.2571666837
15.76479614,-0.206924513,0.6123743653,-0.3326063454
15.77035114,-0.2171562016,0.6977402568,-0.4172086716
15.77590614,-0.224639073,0.7968502641,-0.5044071078
15.78146114,-0.226929754,0.8930587173,-0.5900784731
15.78701614,-0.2249445021,0.9733850956,-0.6762079
15.79257114,-0.2186833173,1.03462255,-0.7634063363
15.79812614,-0.2055501044,1.082115889,-0.8483141065
15.80368114,-0.1826433241,1.118308663,-0.9336800575
15.80923614,-0.1485885978,1.141062737,-1.017824292
15.81479114,-0.1049130186,1.150530815,-1.101815701
15.82034614,-0.0516165942,1.145949483,-1.185654521
15.82590114,0.01527118124,1.121362805,-1.269493341
15.83145614,0.09605573118,1.072036982,-1.353026628
15.83701114,0.1910424829,0.9813261032,-1.430604339
15.84256614,0.2941229641,0.8527427912,-1.50451684
15.84812114,0.4017847776,0.6927008033,-1.566212416
15.85367614,0.5065450668,0.5018110275,-1.612636805
15.85923114,0.6032116413,0.2870981991,-1.648524046
15.86478614,0.67880404,0.05467082933,-1.669598222
15.87034114,0.7230904698,-0.1811162084,-1.676928401
15.87589614,0.7356128097,-0.40270105,-1.678608298
15.88145114,0.7149966955,-0.6145123243,-1.682120681
15.88700614,0.6548282504,-0.8197570443,-1.692046881
15.89256114,0.5665608048,-1.023016453,-1.706554532
15.89811614,0.4468347728,-1.225359559,-1.7118994
15.90367114,0.2974826097,-1.42739737,-1.699529767
15.90922614,0.1195733473,-1.601794243,-1.664406061
15.91478114,-0.0794101432,-1.718313336,-1.607291818
15.92033614,-0.2977880239,-1.746870399,-1.536738992
15.92589114,-0.5259394646,-1.651578307,-1.447402596
15.93144614,-0.7660024762,-1.486496806,-1.3347013
15.93700114,-1.008203387,-1.261399627,-1.199551344
15.94255614,-1.241547108,-0.9585720897,-1.045159698
15.94811114,-1.464811683,-0.5954233408,-0.8780929446
15.95366614,-1.659213901,-0.160194695,-0.7059867382
15.95922114,-1.81192565,0.3232909143,-0.5399889946
15.96477614,-1.923099875,0.8353336453,-0.3741439581
15.97033114,-1.99212563,1.391662717,-0.211353153
15.97588614,-2.024500608,1.988307834,-0.06047387794
15.98144114,-2.016559601,2.61625886,0.07406523079
15.98699614,-1.966317296,3.222219229,0.1982199401
15.99255114,-1.879882455,3.739454269,0.3368822634
15.99810614,-1.758323789,4.089622498,0.4868452549
16.00366114,-1.605306625,4.187663555,0.6410841942
16.00921614,-1.431825995,3.983640432,0.7913526297
16.01477114,-1.248419046,3.483509302,0.9153546095
16.02032614,-1.070509791,2.83188796,1.018740535
16.02588114,-0.913980186,2.140561581,1.111589313
16.03143614,-0.7968502641,1.445722699,1.178629756
16.03699114,-0.7354601026,0.7624900937,1.199856758
16.04254614,-0.7666133046,0.1249182671,1.179545999
16.04810114,-0.8919897079,-0.4347705245,1.135412335
16.05365614,-1.103190184,-0.8692356348,1.08043611
16.05921114,-1.413042426,-0.9550597072,1.014159203
16.06476614,-1.507723689,0.01954711229,0.9164236188
16.07032114,-1.01171577,1.483137131,0.7603521347
16.07587614,-0.37612921,2.348096848,0.6155813336
16.08143114,0.09422318637,2.457133055,0.5205945969
16.08698614,0.3686463237,1.994874477,0.4662291706
16.09254114,0.5254813433,1.316833973,0.4411844313
16.09809614,0.6581879258,0.6742226481,0.4327852726
16.10365114,0.8102889061,0.2021904439,0.4416425824
16.10920614,0.9840749502,-0.04718795046,0.4619532526
16.11476114,1.165802002,-0.1020114943,0.4740174711
16.12031614,1.338213682,-0.02382304333,0.4840964675
16.12587114,1.493368864,0.1345391124,0.5024218559
16.13142614,1.637986898,0.3434488773,0.5283828974
16.13698114,1.778939962,0.5677825212,0.5590779781
16.14253614,1.917907715,0.7882983685,0.5932853818
16.14809114,2.046491146,0.9733850956,0.6317687631
16.15364614,2.16041398,1.113269091,0.6685723066
16.15920114,2.252499342,1.208255887,0.6920899153
16.16475614,2.326869965,1.273463845,0.6849125028
16.17031114,2.388870955,1.330272675,0.6529957056
16.17586614,2.439571142,1.387692213,0.6035171151
16.18142114,2.476832867,1.442363143,0.5479300022
16.18697614,2.499281645,1.490314603,0.5001311898
16.19253114,2.499281645,1.520093441,0.4718795121
16.19808614,2.474542141,1.506654739,0.4494308829
16.20364114,2.42506361,1.435643792,0.4078932703
16.20919614,2.364284277,1.313016176,0.3452814221
16.21475114,2.294189692,1.159540772,0.2707580328
16.22030614,2.222262383,1.015380859,0.1965401024
16.22586114,2.152167559,0.8988617659,0.144465372
16.23141614,2.079018593,0.8192988634,0.1159082651
16.23697114,1.982352018,0.8072346449,0.102316916
16.24252614,1.829487562,0.9481876493,0.08444963396
16.24808114,1.562394619,1.427091956,0.05955760926
16.25363614,1.191915751,2.360619307,0.02260134928
16.25919114,0.7937960029,3.4523561,-0.06047387794
16.26474614,0.4323271513,4.351522923,-0.2137965411
16.27030114,0.1285833418,4.928010464,-0.4022429287
16.27585614,-0.1207950488,5.147915363,-0.5680879354
16.28141114,-0.3141281903,5.02834177,-0.6739172339
16.28696614,-0.4390464723,4.668552876,-0.7134696245
16.29252114,-0.4992149174,4.110238552,-0.6930062175
16.29807614,-0.509599328,3.404098988,-0.6261184216
16.30363114,-0.4709632397,2.633820772,-0.5500679612
16.30918614,-0.3927747905,1.893931985,-0.4944808483
16.31474114,-0.2901524603,1.224137902,-0.4705050886
16.32029614,-0.1991362125,0.6331431866,-0.4802786708
16.32585114,-0.1481304616,0.1476723254,-0.5121954083
16.33140614,-0.146756053,-0.2165453583,-0.56106323
16.33696114,-0.1922641695,-0.4720322192,-0.6264238358
16.34251614,-0.269230932,-0.6381826997,-0.7032378912
16.34807114,-0.3713951409,-0.7459971905,-0.7866185308
16.35362614,-0.4903576374,-0.8108997345,-0.8754968047
16.35918114,-0.6197045445,-0.8383878469,-0.9463551044
16.36473614,-0.7574505806,-0.8397622705,-0.9797990322
16.37029114,-0.9040539265,-0.8092198968,-0.972468853
16.37584614,-1.046992183,-0.7455390692,-0.9446752667
16.38140114,-1.188556075,-0.6529957056,-0.9110786915
16.38695614,-1.325691223,-0.5421269536,-0.8832851648
16.39251114,-1.455343604,-0.4149180055,-0.8739697337
16.39806614,-1.580261827,-0.275950253,-0.8942803741
16.40362114,-1.702125907,-0.1331647038,-0.9153546095
16.40917614,-1.822157383,0.008551862091,-0.9242119193
16.41473114,-1.944479585,0.1287360638,-0.9257390499
16.42028614,-2.068176031,0.218072474,-0.921004951
16.42584114,-2.184542418,0.2809897363,-0.9066500664
16.43139614,-2.287164927,0.3184041381,-0.8944330812
16.43695114,-2.377875566,0.3358132839,-0.8987090588
16.44250614,-2.458660126,0.3350497186,-0.9239065051
16.44806114,-2.523257256,0.3164188862,-0.9689564705
16.45361614,-2.568918228,0.2794626355,-1.027292371
16.45917114,-2.594268322,0.2338017821,-1.069898963
16.46472614,-2.602514744,0.1794363856,-1.087308168
16.47028114,-2.593962908,0.1136175916,-1.073564053
16.47583614,-2.565405846,0.03939964995,-1.037676811
16.48139114,-2.513330936,-0.03206948191,-0.9943066239
16.48694614,-2.435600758,-0.102316916,-0.9468132257
16.49250114,-2.33389473,-0.1640124917,-0.898403585
16.49805614,-2.205769539,-0.2075353563,-0.8451071978
16.50361114,-2.053668499,-0.2249445021,-0.7765395641
16.50916614,-1.73999846,-0.06948387623,-0.6872031689
16.51472114,-0.5705313683,0.9362761378,-0.549762547
16.52027614,0.6919372082,1.919129372,-0.3455868363
16.52583114,1.348292589,2.169271231,-0.1198787764
16.53138614,1.50451684,1.875606537,0.1094943732
16.53694114,1.375780702,1.341115117,0.3165715933
16.54249614,1.132358074,0.7872294188,0.4462239146
16.54805114,0.896876514,0.3619270027,0.4680617154
16.55360614,0.7191199064,0.1070509851,0.426982224
16.55916114,0.6067240238,0.02794626169,0.3823903799
16.56471614,0.5465555787,0.08857285231,0.3802524209
16.57027114,0.5282301903,0.2556395829,0.4301891923
16.57582614,0.5511369109,0.5041016936,0.5187620521
16.58138114,0.604891479,0.7953231335,0.6166502833
16.58693614,0.689493835,1.109756708,0.7105680704
16.59249114,0.7974610925,1.434116602,0.7808154821
16.59804614,0.9176452756,1.73480618,0.8191461563
16.60360114,1.039509296,1.986169815,0.842663765
16.60915614,1.14503324,2.16041398,0.8739697337
16.61471114,1.221389055,2.24379468,0.9222266674
16.62026614,1.263079405,2.240282297,0.9796462655
16.62582114,1.277739763,2.170951128,1.028208613
16.63137614,1.269646049,2.056722641,1.056765795
16.63693114,1.247350097,1.918365836,1.068524599
16.64248614,1.216807723,1.771609783,1.075702071
16.64804114,1.178477049,1.630504012,1.089140654
16.65359614,1.140604496,1.513984919,1.119988441
16.65915114,1.176339149,1.548192382,1.184585571
16.66470614,1.520246148,2.111698866,1.319430113
16.67026114,2.04633832,2.950239658,1.513832211
16.67581614,2.426438093,3.47526288,1.727781415
16.68137114,2.533794403,3.478622437,1.945395827
16.68692614,2.434073687,3.11425209,2.143768549
16.69248114,2.233562946,2.568459988,2.287164927
16.69803614,2.030608892,1.998997688,2.361077309
16.70359114,1.877591729,1.500546336,2.379555464
16.70914614,1.789018869,1.112505555,2.381235361
16.71470114,1.767181158,0.8435800672,2.401546001
16.72025614,1.793294787,0.6752916574,2.45056653
16.72581114,1.835137844,0.5712949038,2.514094591
16.73136614,1.871177912,0.5100574493,2.557464838
16.73692114,1.890266895,0.4836383164,2.571056128
16.74247614,1.891183138,0.5019637346,2.556548595
16.74803114,1.879882455,0.5667135715,2.510124207
16.75358614,1.853768706,0.67880404,2.43605876
16.75914114,1.82124114,0.823574841,2.354357958
16.76469614,1.779550791,0.9909469485,2.275100708
16.77025114,1.735111594,1.175422788,2.198897362
16.77580614,1.691436052,1.36646533,2.124068737
16.78136114,1.642262816,1.543152928,2.039771795
16.78691614,1.58163631,1.69571197,1.946006656
16.79247114,1.506043911,1.80826056,1.84002471
16.79802614,1.409988165,1.856822968,1.718924165
16.80358114,1.289956689,1.825364351,1.579192877
16.80913614,1.146407604,1.721520305,1.42846632
16.81469114,1.00285852,1.575222373,1.28048861
16.82024614,0.8683193922,1.409835458,1.14869833
16.82580114,0.7530219555,1.241241574,1.035996914
16.83135614,0.6638382673,1.084712029,0.9376505613
16.83691114,0.6016845703,0.9492566586,0.8451071978
16.84246614,0.5720584393,0.858851254,0.7591304183
16.84802114,0.5679352283,0.8113578558,0.6890357137
16.85357614,0.5836645365,0.7818844914,0.6332958937
16.85913114,0.6143596172,0.7508839965,0.5938962698
16.86468614,0.6491779089,0.7082774043,0.560452342
16.87024114,0.6778877378,0.6439857483,0.5111264586
16.87579614,0.7021689415,0.5352548957,0.4359922409
16.88135114,0.7194253802,0.3927747905,0.3416163325
16.88690614,0.7353073955,0.238077715,0.2391466945
16.89246114,0.7482879162,0.06749862432,0.1349972486
16.89801614,0.7572978735,-0.1162136942,0.03069507517
16.90357114,0.763559103,-0.3211529553,-0.07207997888
16.90912614,0.7707365155,-0.5450284481,-0.1638597846
16.91468114,0.7794411182,-0.7719582319,-0.2444916219
16.92023614,0.7881456614,-0.9932376146,-0.3185568452
16.92579114,0.7913526297,-1.196955204,-0.3826957941
16.93134614,0.7837170362,-1.357913494,-0.4311054647
16.93690114,0.7638645172,-1.429840684,-0.4668400288
16.94245614,0.7269082665,-1.403268814,-0.4909684956
16.94801114,0.6671979427,-1.280794024,-0.5036435723
16.95356614,0.5761816502,-1.058140159,-0.5015056133
16.95912114,0.4488200247,-0.740346849,-0.4798205197
16.96467614,0.2959555089,-0.3889569938,-0.4497362971
16.97023114,0.1369825006,-0.03771981969,-0.4146125913
16.97578614,-0.01420219894,0.2997733057,-0.3807105422
16.98134114,-0.1470614821,0.6139014959,-0.3567348123
16.98689614,-0.2522799075,0.9026795626,-0.34696123
16.99245114,-0.3297048211,1.154501319,-0.349404633
16.99800614,-0.3814741075,1.354095697,-0.3608580232
17.00356114,-0.4091149569,1.503295064,-0.3863608837
17.00911614,-0.4149180055,1.613553047,-0.4191939235
17.01467114,-0.4106420577,1.678913713,-0.4523324072
17.02022614,-0.4031592011,1.69830811,-0.4753918648
17.02578114,-0.3958290219,1.682120681,-0.4923428893
17.03133614,-0.391705811,1.64104116,-0.5082249045
17.03689114,-0.3901786804,1.582705259,-0.5260922313
17.04244614,-0.3923166394,1.521925926,-0.5486935377
17.04800114,-0.4023956358,1.452900171,-0.5789304972
17.05355614,-0.4208737612,1.373795509,-0.6177192926
17.05911114,-0.4465293586,1.287513256,-0.6656708121
17.06466614,-0.4830274582,1.205659747,-0.7191199064
17.07022114,-0.5311316848,1.127165914,-0.7745543122
17.07577614,-0.5874823332,1.047603011,-0.8351809382
17.08133114,-0.649941504,0.9668185115,-0.9025267959
17.08688614,-0.7171346545,0.8788564801,-0.9712471366
17.09244114,-0.791810751,0.7728744745,-1.040731072
17.09799614,-0.8684720993,0.6305471063,-1.108382344
17.10355114,-0.9437590241,0.4401154518,-1.174048424
17.10910614,-1.019351363,0.2176143378,-1.226275921
17.11466114,-1.09662354,-0.00763559062,-1.261399627
17.12021614,-1.171910524,-0.2034121305,-1.278045177
17.12577114,-1.243379593,-0.3312319219,-1.267966151
17.13132614,-1.301562786,-0.3657447994,-1.211004734
17.13688114,-1.307976723,-0.2324273884,-1.078450799
17.14243614,-1.23986721,0.0536018461,-0.8622109294
17.14799114,-1.0841012,0.4437805414,-0.5816792846
17.15354614,-0.8449544907,0.8964183331,-0.275950253
17.15910114,-0.5395308137,1.353179336,0.01847812906
17.16465614,-0.2402156889,1.689145327,0.2785463631
17.17021114,-0.01572931744,1.921420097,0.4947862923
17.17576614,0.1181989461,2.134605646,0.6531484127
17.18132114,0.1255291104,2.31724906,0.7397360206
17.18687614,-0.00763559062,2.405058384,0.7673768401
17.19243114,-0.253348887,2.3552742,0.7531746626
17.19798614,-0.5627430081,2.166369915,0.7221741676
17.20354114,-0.8820634484,1.865069389,0.7437065244
17.20909614,-1.141520858,1.538113356,0.8527427912
17.21465114,-1.284306407,1.262010455,1.024696231
17.22020614,-1.321568012,1.046992183,1.209019423
17.22576114,-1.274990916,0.8280034661,1.3347013
17.23131614,-1.179240584,0.5897729993,1.358218908
17.23687114,-1.073869467,0.3428380191,1.273769259
17.24242614,-0.9909469485,0.06933116168,1.114032745
17.24798114,-0.9472714067,-0.2437280566,0.9101623893
17.25353614,-0.9506310225,-0.6045860648,0.6968240142
17.25909114,-0.9805625677,-0.9666658044,0.4877615273
17.26464614,-1.00026238,-1.264912009,0.2907632887
17.27020114,-0.9736905098,-1.444195628,0.09116895497
17.27575614,-0.8571714163,-1.485580564,-0.1256818175
17.28131114,-0.6540647149,-1.471225619,-0.3466558158
17.28686614,-0.4388937652,-1.56392169,-0.527161181
17.29242114,-0.2507528067,-1.783826709,-0.6484143734
17.29797614,-0.07452336699,-2.036259413,-0.7224795818
17.30353114,0.1050657257,-2.21569562,-0.7620319724
17.30908614,0.289388895,-2.281056404,-0.7737907767
17.31464114,0.4708105326,-2.219208002,-0.7617265582
17.32019614,0.6497887969,-2.056264639,-0.7368345261
17.32575114,0.8328902125,-1.810093164,-0.6966713071
17.33130614,1.017366052,-1.514137626,-0.6397097707
17.33686114,1.203369141,-1.193137407,-0.5677825212
17.34241614,1.387234092,-0.8657232523,-0.4776825607
17.34797114,1.561478257,-0.5415160656,-0.3717005551
17.35352614,1.729919434,-0.2211267054,-0.242659077
17.35908114,1.880340576,0.08017370105,-0.09177979827
17.36463614,2.016254187,0.3634541333,0.07192726433
17.37019114,2.139950752,0.6238277555,0.2215848416
17.37574614,2.250361204,0.8510629535,0.3411581814
17.38130114,2.34061408,1.048977494,0.4274403751
17.38685614,2.409334183,1.220014691,0.4821111858
17.39241114,2.458507538,1.371352077,0.5079194903
17.39796614,2.485079288,1.510472536,0.4998257756
17.40352114,2.492409468,1.632183909,0.4573718905
17.40907614,2.47820735,1.733889937,0.3886515796
17.41463114,2.438960314,1.805359125,0.2968717813
17.42018614,2.374974251,1.829182148,0.1872246861
17.42574114,2.288844585,1.796043634,0.08490777016
17.43129614,2.183015347,1.710066915,0.01481304597
17.43685114,2.071688414,1.591409802,-0.02244863659
17.44240614,1.967233539,1.466796994,-0.04031591862
17.44796114,1.875759244,1.349361539,-0.04642439261
17.45351614,1.797723532,1.251626015,-0.04886778072
17.45907114,1.725032687,1.210852027,-0.06123743951
17.46462614,1.648676753,1.227650285,-0.08154810965
17.47018114,1.57430613,1.275449038,-0.1053711548
17.47573614,1.5019207,1.386317849,-0.1317902952
17.48129114,1.428924441,1.584537745,-0.1751604527
17.48684614,1.349056125,1.880798697,-0.2472404242
17.49240114,1.237576604,2.287622929,-0.3431434333
17.49795614,1.079367161,2.766985416,-0.4367557764
17.50351114,0.9034430981,3.233825445,-0.5305208564
17.50906614,0.7420266867,3.599417448,-0.6180247068
17.51462114,0.6018372774,3.803593159,-0.6737645268
17.52017614,0.4866925478,3.812755823,-0.6901046634
17.52573114,0.3930802047,3.666152477,-0.6835380793
17.53128614,0.3156553209,3.40654254,-0.6665870547
17.53684114,0.2447970361,3.069354773,-0.6487197876
17.54239614,0.1815743446,2.685284615,-0.6383354068
17.54795114,0.1317902952,2.294647694,-0.6490252018
17.55350614,0.08994726092,1.935316801,-0.6887302995
17.55906114,0.0560452342,1.607444525,-0.7548545003
17.56461614,0.02397575416,1.29927206,-0.842663765
17.57017114,-0.01221694518,1.019198656,-0.9394831061
17.57572614,-0.05818320066,0.7821899056,-1.034317136
17.58128114,-0.1183516532,0.5911474228,-1.103037477
17.58683614,-0.1910424829,0.4436278343,-1.134037971
17.59239114,-0.2741177082,0.3373403847,-1.132816195
17.59794614,-0.3671191931,0.2594573796,-1.109298587
17.60350114,-0.4677563012,0.2079934925,-1.074938416
17.60905614,-0.5728220344,0.1772984117,-1.044090629
17.61461114,-0.6833853722,0.1554606259,-1.015838981
17.62016614,-0.8018897176,0.140036732,-0.9962918758
17.62572114,-0.9294040799,0.1275143623,-0.9866710305
17.63127614,-1.063026905,0.1156028435,-0.9755230546
17.63683114,-1.202300072,0.1010952219,-0.9639169574
17.64238614,-1.347223639,0.0838387832,-0.9527690411
17.64794114,-1.491994381,0.06032116711,-0.9368869662
17.65349614,-1.636001706,0.02626643144,-0.9194778204
17.65905114,-1.783826709,-0.00946813263,-0.907566309
17.66460614,-1.927070379,-0.02687728032,-0.8976400495
17.67016114,-2.058097124,-0.02244863659,-0.8915315866
17.67571614,-2.175685167,-0.0109952502,-0.8817580342
17.68127114,-2.277391195,0.01359135192,-0.8586985469
17.68682614,-2.360161066,0.06184828654,-0.818688035
17.69238114,-2.421856642,0.1342336833,-0.7663078904
17.69793614,-2.465226889,0.2538070381,-0.7009472251
17.70349114,-2.485079288,0.405144453,-0.6319214702
17.70904614,-2.477291107,0.5754181147,-0.5615213513
17.71460114,-2.447664976,0.7583668828,-0.4944808483
17.72015614,-2.391467094,0.9358180165,-0.4332434237
17.72571114,-2.306101084,1.099525094,-0.3726168275
17.73126614,-2.198133945,1.253000498,-0.3075616062
17.73682114,-2.067259789,1.403421521,-0.2473931462
17.74237614,-1.906912446,1.559798479,-0.1939440072
17.74793114,-1.690214396,1.78061974,-0.1404948682
17.75348614,-1.121668339,2.683299303,-0.04107947648
17.75904114,-0.01924168877,4.539664268,0.2084516287
17.76459614,0.8350282311,5.772048473,0.5291464329
17.77015114,1.191915751,5.954691887,0.8112051487
17.77570614,1.231926203,5.431348324,0.9978190064
17.78126114,1.157708287,4.581048965,1.067913771
17.78681614,1.079825282,3.618506432,1.024390817
17.79237114,1.027445078,2.642525196,0.8948912621
17.79792614,1.00545454,1.698155403,0.6963658929
17.80348114,1.008814216,0.8338065147,0.4776825607
17.80903614,1.028972149,0.08475505561,0.3272614181
17.81459114,1.050962687,-0.5120427012,0.3106158376
17.82014614,1.078145385,-0.9486457705,0.3900259733
17.82570114,1.123958945,-1.198024154,0.5181511641
17.83125614,1.198176861,-1.256665468,0.6752916574
17.83681114,1.302631736,-1.148087382,0.8469397426
17.84236614,1.433353066,-0.9040539265,1.045923233
17.84792114,1.588355541,-0.5209000111,1.282931924
17.85347614,1.767181158,0.01053711493,1.544985414
17.85903114,1.933484316,0.6394043565,1.816354275
17.86458614,2.044047594,1.256207347,2.061609507
17.87014114,2.070619583,1.759850979,2.265937805
17.87569614,2.01350522,2.138576269,2.428575993
17.88125114,1.92340529,2.457743883,2.561893463
17.88680614,1.838497519,2.771414042,2.669708014
17.89236114,1.790851474,3.110281467,2.755226612
17.89791614,1.78535378,3.459380627,2.822877884
17.90347114,1.807802439,3.746326208,2.873272896
17.90902614,1.832999945,3.919196129,2.904731512
17.91458114,1.854990363,3.97799015,2.907785654
17.92013614,1.867970943,3.924540997,2.887627602
17.92569114,1.865069389,3.767400503,2.851282358
17.93124614,1.833610773,3.515578747,2.791419268
17.93680114,1.770388126,3.199770689,2.699334145
17.94235614,1.661809921,2.845631838,2.569834471
17.94791114,1.511388779,2.485384703,2.388718128
17.95346614,1.335464835,2.182404518,2.146822691
17.95902114,1.154043198,1.909050345,1.883547544
17.96457614,0.9912523627,1.671888947,1.639666796
17.97013114,0.853964448,1.486344099,1.414264083
17.97568614,0.7385143638,1.361578584,1.201383829
17.98124114,0.647192657,1.28048861,0.9998042583
17.98679614,0.5839699507,1.209019423,0.8200624585
17.99235114,0.5493044257,1.116170645,0.6694886088
17.99790614,0.5326588154,0.9871291518,0.5430431962
18.00346114,0.5234960914,0.8035695553,0.4387410581
18.00901614,0.5172349215,0.5722111464,0.3678827584
18.01457114,0.5135698318,0.3220692277,0.32924667
18.02012614,0.4964661002,0.05879404768,0.3083251417
18.02568114,0.469283402,-0.2160872221,0.3003841341
18.03123614,0.4489727318,-0.4526378214,0.3055763543
18.03679114,0.4440859556,-0.6109999418,0.3159607351
18.04234614,0.4550811946,-0.6746807694,0.3231382072
18.04790114,0.4700469673,-0.6690304875,0.3274141252
18.05345614,0.4720322192,-0.629478097,0.3286358118
18.05901114,0.4619532526,-0.563201189,0.3394783735
18.06456614,0.4393518865,-0.4761554301,0.3571929336
18.07012114,0.4059080184,-0.3608580232,0.3700207174
18.07567614,0.3727695346,-0.1988307834,0.3787252903
18.08123114,0.3417690396,0.01053711493,0.3781144619
18.08678614,0.3109212518,0.2186833173,0.366966486
18.09234114,0.2756448388,0.3999522328,0.3417690396
18.09789614,0.233649075,0.5483881235,0.30267483
18.10345114,0.1860029846,0.6474980712,0.2574721277
18.10900614,0.1359135211,0.67880404,0.2141019702
18.11456114,0.08536590636,0.6687250137,0.1762294322
18.12011614,0.04046862945,0.6329904795,0.1388150454
18.12567114,0.004886778072,0.6117635369,0.106745556
18.13122614,-0.02015795931,0.6308525205,0.09544488788
18.13678114,-0.03451287001,0.6992673874,0.1056765765
18.14233614,-0.03451287001,0.80799824,0.120184198
18.14789114,-0.02611372061,0.9284878373,0.1287360638
18.15344614,-0.020310672,1.023627281,0.1320957243
18.15900114,-0.01359135192,1.098914266,0.1221694499
18.16455614,-0.002443389036,1.153585076,0.09865183383
18.17011114,0.004275931045,1.170536041,0.06780404598
18.17566614,0.007024743594,1.170994163,0.02351761982
18.18122114,0.002443389036,1.168703556,-0.03252761811
18.18677614,-0.01328592747,1.165649295,-0.09849911928
18.19233114,-0.02657185495,1.184280157,-0.175771296
18.19788614,-0.02657185495,1.217418551,-0.2560977042
18.20344114,-0.01618745178,1.257734537,-0.3403946459
18.20899614,0.00809372589,1.305075169,-0.4338542521
18.21455114,0.04153761268,1.353332043,-0.5331169367
18.22010614,0.07498150319,1.386317849,-0.6390989423
18.22566114,0.1087308154,1.395480514,-0.7453863621
18.23121614,0.1385096163,1.373031974,-0.8522846103
18.23677114,0.1597365588,1.322026134,-0.9588775039
18.24232614,0.1667613089,1.244448543,-1.064706802
18.24788114,0.1550024897,1.144422293,-1.163205862
18.25343614,0.1218640283,1.023474574,-1.252847672
18.25899114,0.05925218388,0.8875610828,-1.329661727
18.26454614,-0.02764083818,0.7429429889,-1.39670229
18.27010114,-0.1359135211,0.6007682681,-1.452594757
18.27565614,-0.2493783981,0.4668400288,-1.496575832
18.28121114,-0.353833288,0.3489464819,-1.528339863
18.28676614,-0.4304946065,0.2594573796,-1.538113356
18.29232114,-0.4721849263,0.2179197669,-1.521009684
18.29787614,-0.4795151055,0.2110477239,-1.466796994
18.30343114,-0.4501944184,0.2440334857,-1.373490095
18.30898614,-0.3898732662,0.3217637837,-1.221999884
18.31454114,-0.31153211,0.4327852726,-1.017366052
18.32009614,-0.2342599183,0.5503733754,-0.7734853625
18.32565114,-0.1643179059,0.6769714952,-0.515860498
18.33120614,-0.1027750522,0.8121214509,-0.2518217862
18.33676114,-0.05589252338,0.939330399,-0.008857285604
18.34231614,-0.03420744836,1.06226337,0.1992889196
18.34787114,-0.04107947648,1.191763043,0.3399364948
18.35342614,-0.07681404054,1.336381078,0.3944546282
18.35898114,-0.1316375881,1.492147088,0.3851391971
18.36453614,-0.2092151791,1.665933132,0.3970507085
18.37009114,-0.2953446507,1.843536973,0.4701996744
18.37564614,-0.3668137789,1.993499994,0.5525113344
18.38120114,-0.4184303582,2.066954374,0.598477602
18.38675614,-0.4547757804,2.043284178,0.598477602
18.39231114,-0.4830274582,1.910730243,0.5601469278
18.39786614,-0.5146388412,1.663031697,0.4900522232
18.40342114,-0.5575508475,1.269187927,0.406824261
18.40897614,-0.6160394549,0.7690566778,0.3139754832
18.41453114,-0.6864396334,0.2066190839,0.215781793
18.42008614,-0.765697062,-0.3660502136,0.1128540337
18.42564114,-0.8576295376,-0.8977927566,0.02137965336
18.43119614,-0.9571976662,-1.357149839,-0.04077405483
18.43675114,-1.021336675,-1.688534498,-0.08628217876
18.44230614,-1.022711039,-1.861709714,-0.1212531775
18.44786114,-0.9701781869,-1.886296391,-0.1369825006
18.45341614,-0.8886300325,-1.78688097,-0.1327065676
18.45897114,-0.81166327,-1.596754789,-0.1322484314
18.46452614,-0.7521057129,-1.292400122,-0.1441599578
18.47008114,-0.5998520255,-0.5987830162,-0.1449235082
18.47563614,-0.3008422852,0.518609345,-0.1270562261
18.48119114,-0.02260134928,1.46756053,-0.105829291
18.48674614,0.1864611208,1.913631797,-0.0809372589
18.49230114,0.3278722763,1.84735477,-0.05192201585
18.49785614,0.4164451063,1.425564766,-0.01267508045
18.50341114,0.4860817194,0.8470924497,0.0109952502
18.50896614,0.5712949038,0.293970257,-0.0006108472589
18.51452114,0.6884248853,-0.1372879148,-0.0426065959
18.52007614,0.8318212628,-0.4124746025,-0.09437590092
18.52563114,0.9830059409,-0.5467082858,-0.1411057115
18.53118614,1.133885264,-0.5922164321,-0.1701209545
18.53674114,1.280335903,-0.5806103349,-0.1722589284
18.54229614,1.425564766,-0.5254813433,-0.1566823274
18.54785114,1.57430613,-0.4335488379,-0.1288887709
18.55340614,1.731599212,-0.3109212518,-0.08414421231
18.55896114,1.903552771,-0.1565296054,-0.03329117596
18.56451614,2.089861155,0.02367033064,0.002596100792
18.57007114,2.278460264,0.2345653474,0.007788302377
18.57562614,2.453315258,0.4581354558,-0.0227540601
18.58118114,2.586479902,0.6566607952,-0.09483403713
18.58673614,2.661919594,0.7892146707,-0.1921114624
18.59229114,2.670318842,0.8179244995,-0.2811424434
18.59784614,2.617022276,0.7188144922,-0.3226800561
18.60340114,2.508596897,0.4946335554,-0.3239017725
18.60895614,2.34061408,0.1383569092,-0.3220692277
18.61451114,2.130787849,-0.3174878657,-0.3240544796
18.62006614,1.909814,-0.8020424247,-0.3257342875
18.62562114,1.71342659,-1.237729311,-0.3362714052
18.63117614,1.551552057,-1.586217642,-0.3631486893
18.63673114,1.425564766,-1.842926145,-0.4129327536
18.64228614,1.322331548,-2.0208354,-0.4990622103
18.64784114,1.23207891,-2.136896372,-0.6149705052
18.65339614,1.1523633,-2.189123869,-0.7398887277
18.65895114,1.068830013,-2.174921751,-0.8359444737
18.66450614,0.9807152748,-2.050156116,-0.8777875304
18.67006114,0.8898517489,-1.762752533,-0.8571714163
18.67561614,0.7803573608,-1.384943485,-0.791810751
18.68117114,0.6351284385,-0.8478559852,-0.6966713071
18.68672614,0.4430169761,-0.09437590092,-0.5952706337
18.69228114,0.2145601064,0.7493568659,-0.5115845799
18.69783614,-0.03588727489,1.559034944,-0.4622586668
18.70339114,-0.2913741469,2.268533945,-0.4442386627
18.70894614,-0.5396835804,2.805010557,-0.4491254389
18.71450114,-0.7838697433,3.145099878,-0.4523324072
18.72005614,-1.017824292,3.323619843,-0.4439332485
18.72561114,-1.229177356,3.399517775,-0.4343124032
18.73116614,-1.417165637,3.421813726,-0.426982224
18.73672114,-1.583163381,3.413109064,-0.4198047817
18.74227614,-1.730377555,3.372640371,-0.418124944
18.74783114,-1.859877229,3.3028512,-0.4211791754
18.75338614,-1.967386365,3.194120407,-0.4308000207
18.75894114,-2.055500984,3.04553175,-0.4501944184
18.76449614,-2.127122879,2.879534006,-0.478140682
18.77005114,-2.191567183,2.701624632,-0.5076140761
18.77560614,-2.263952732,2.500808716,-0.5347967744
18.78116114,-2.350845575,2.276627779,-0.571600318
18.78671614,-2.453620672,2.038397312,-0.625202179
18.79227114,-2.573194027,1.782146931,-0.6939224601
18.79782614,-2.717506647,1.508945465,-0.7722636461
18.80338114,-2.878312349,1.208714008,-0.8657232523
18.80893614,-3.042783022,0.8872556686,-0.9704836011
18.81449114,-3.208475113,0.5445703268,-1.084406614
18.82004614,-3.365463018,0.1913478971,-1.193595529
18.82560114,-3.513593435,-0.1794363856,-1.278045177
18.83115614,-3.650423288,-0.5657972693,-1.33210516
18.83671114,-3.776257753,-0.9631534219,-1.37532258
18.84226614,-3.879338264,-1.377002478,-1.416860223
18.84782114,-2.783630848,-1.720604062,-1.392426372
18.85337614,0.7269082665,-1.886449099,-1.195122719
18.85893114,1.583774209,-2.153389215,-0.9914051294
18.86448614,1.82124114,-2.27296257,-0.8467870355
18.87004114,1.919587493,-2.191720009,-0.7346965671
18.87559614,1.616760015,-1.92493248,-0.6786513329
18.88115114,0.969720006,-1.477486849,-0.6543701291
18.88670614,0.3289412558,-0.8791618943,-0.6420004964
18.89226114,-0.2235700935,-0.1685938388,-0.635891974
18.89781614,-0.6632274389,0.6009209752,-0.6336013079
18.90337114,-0.9872818589,1.318208337,-0.6223006248
18.90892614,-1.201994658,1.818492293,-0.5784723759
18.91448114,-1.312405348,1.999913931,-0.5060869455
18.92003614,-1.329814434,1.851019859,-0.4109475017
18.92559114,-1.260483265,1.461146593,-0.2988570333
18.93114614,-1.105328083,0.9764393568,-0.1924168915
18.93670114,-0.6968240142,0.5570927262,-0.1064401343
18.94225614,0.05848862603,0.2736595869,-0.02000524849
18.94781114,0.8493831158,0.1235438585,0.08551861346
18.95336614,1.351041436,0.09468132257,0.2017323077
18.95892114,1.498713732,0.1740914732,0.2878617644
18.96447614,1.365243673,0.3371876776,0.318251431
18.97003114,1.084253907,0.5435013771,0.2983988822
18.97558614,0.7580614686,0.753785491,0.2617480457
18.98114114,0.4605788291,0.9431481957,0.2388412803
18.98669614,0.2447970361,1.0862391,0.2556395829
18.99225114,0.1343863904,1.152974248,0.3374931216
18.99780614,0.1424801201,1.127471328,0.4582881629
19.00336114,0.2454078794,1.011563063,0.5740436912
19.00891614,0.4256078303,0.8040276766,0.67880404
19.01447114,0.6554391384,0.5022691488,0.779135704
19.02002614,0.9087880254,0.1411057115,0.8805363178
19.02558114,1.168398142,-0.2121167034,0.9927794933
19.03113614,1.411820769,-0.5021164417,1.139688253
19.03669114,1.634627223,-0.6968240142,1.333937645
19.04224614,1.844300628,-0.7855495811,1.555675268
19.04780114,2.043589592,-0.7782194018,1.760156393
19.05335614,2.216306686,-0.6933116317,1.916685939
19.05891114,2.348402262,-0.587176919,2.040077209
19.06446614,2.45316267,-0.4802786708,2.147586346
19.07002114,2.527380466,-0.3776563108,2.259218693
19.07557614,2.581287861,-0.2811424434,2.371461868
19.08113114,2.621298313,-0.173480615,2.455605984
19.08668614,2.663446665,-0.01695101149,2.497296333
19.09224114,2.71002388,0.171342656,2.504321098
19.09779614,2.770039558,0.3744493723,2.484621286
19.10335114,2.838301897,0.5908420086,2.452246428
19.10890614,2.907021999,0.8192988634,2.424299955
19.11446114,2.977116823,1.075091124,2.400324345
19.12001614,3.043241024,1.346612811,2.381235361
19.12557114,3.090276241,1.61187315,2.366727591
19.13112614,3.101729631,1.839872003,2.346264362
19.13668114,3.060802937,2.009229422,2.30319953
19.14223614,2.958180666,2.107117653,2.217222929
19.14779114,2.797374964,2.13170433,2.09688592
19.15334614,2.58556366,2.065579891,1.968913436
19.15890114,2.343362808,1.916533232,1.84888196
19.16445614,2.079018593,1.713884711,1.732668281
19.17001114,1.799556017,1.494437814,1.611567736
19.17556614,1.500393629,1.240172625,1.487260342
19.18112114,1.146407604,0.8089144826,1.352721214
19.18667614,0.65849334,0.005039489828,1.202911019
19.19223114,0.1108687744,-0.9969027042,1.081810474
19.19778614,-0.3504736125,-1.873010397,0.9936957955
19.20334114,-0.6865923405,-2.572736025,0.9176452756
19.20889614,-0.8855758309,-3.034994602,0.8394568563
19.21445114,-0.9605573416,-3.205726385,0.7481352091
19.22000614,-0.9342908859,-3.06538415,0.6484143734
19.22556114,-0.8231166601,-2.582662106,0.5728220344
19.23111614,-0.3672719002,-0.8412894011,0.6345176101
19.23667114,0.4929537475,2.22134614,0.9184088707
19.24222614,0.9497147799,4.176820755,1.221541762
19.24778114,0.9985825419,4.938089371,1.460688472
19.25333614,0.783411622,4.869674206,1.644553542
19.25889114,0.4743228853,4.250580788,1.770846248
19.26444614,0.251210928,3.392034769,1.837581277
19.27000114,0.1618745178,2.460034609,1.907065153
19.27555614,0.1863084137,1.574458838,2.022515297
19.28111114,0.2686200738,0.8507575393,2.141630411
19.28666614,0.3800997138,0.3345915973,2.167591572
19.29222114,0.485165447,-0.04382828996,2.100092888
19.29777614,0.5430431962,-0.3643703759,2.017628431
19.30333114,0.5488462448,-0.5926745534,1.946770191
19.30888614,0.5241069198,-0.720647037,1.891183138
19.31444114,0.4987567961,-0.7734853625,1.857281089
19.31999614,0.503185451,-0.7137750387,1.827044129
19.32555114,0.5347967744,-0.5955760479,1.799556017
19.33110614,0.5792359114,-0.4482091665,1.764432311
19.33666114,0.6154286265,-0.2858765125,1.7118994
19.34221614,0.6406260729,-0.1553079188,1.635390878
19.34777114,0.6523848772,-0.09956810623,1.541320324
19.35332614,0.6519267559,-0.09727742523,1.435338378
19.35888114,0.6488724947,-0.1223221645,1.32950902
19.36443614,0.6442911625,-0.1583621502,1.223985195
19.36999114,0.6320741773,-0.2034121305,1.114490867
19.37554614,0.6010736823,-0.2455606014,0.99659729
19.38110114,0.5575508475,-0.2531961799,0.8739697337
19.38665614,0.4920374751,-0.2183778882,0.7481352091
19.39221114,0.4043808877,-0.1835595965,0.6420004964
19.39776614,0.3177932799,-0.1459924877,0.531437099
19.40332114,0.2496838123,-0.09834641218,0.4144598544
19.40887614,0.1840177327,-0.06001574174,0.3326063454
19.41443114,0.1401894391,-0.01450762246,0.2399102598
19.41998614,0.08994726092,0.004123218823,0.1501157135
19.42554114,0.03176405653,0.0397050716,0.01969982497
19.43109614,-0.02932066843,0.155766055,-0.1861557066
19.43665114,-0.09498675168,0.3235963285,-0.4376720488
19.44220614,-0.1786728203,0.4494308829,-0.6868977547
19.44776114,-0.2669402659,0.5128062963,-0.9255862832
19.45331614,-0.3471139669,0.5181511641,-1.153432369
19.45887114,-0.4147652984,0.4654656053,-1.374100924
19.46442614,-0.4669927359,0.3413109183,-1.578123927
19.46998114,-0.5079194903,0.1183516532,-1.746564984
19.47553614,-0.5511369109,-0.1838650256,-1.886296391
19.48109114,-0.6058077812,-0.4969242513,-1.986322522
19.48664614,-0.6841489077,-0.6928535104,-2.049545288
19.49220114,-0.7937960029,-0.6626165509,-2.098260403
19.49775614,-0.9226847887,-0.3173351586,-2.157817841
19.50331114,-1.009730577,0.1953184158,-2.233104944
19.50886614,-1.059209108,0.6940752268,-2.300297976
19.51442114,-1.129456639,1.174964666,-2.339392185
19.51997614,-1.259872437,1.740456581,-2.381998777
19.52553114,-1.468018651,2.473320484,-2.433615446
19.53108614,-1.723200083,3.239933968,-2.474542141
19.53664114,-1.950893402,3.647521734,-2.530587435
19.54219614,-2.0692451,3.492061138,-2.604041815
19.54775114,-2.072299242,2.995747566,-2.659934282
19.55330614,-1.994416356,2.43025589,-2.685437202
19.55886114,-1.803679228,2.157054424,-2.634431601
19.56441614,-1.438545346,2.334658146,-2.451635361
19.56997114,-1.032179117,2.519439459,-2.208671093
19.57552614,-0.7681404352,2.2364645,-2.010145664
19.58108114,-0.6420004964,1.516581059,-1.897749662
19.58663614,-0.5552601814,0.6902574301,-1.854684949
19.59219114,-0.4578300118,0.01374406368,-1.839108348
19.59774614,-0.3484883606,-0.4813476503,-1.833916187
19.60330114,-0.2429644912,-0.8365553021,-1.83635962
19.60885614,-0.1550024897,-1.099677801,-1.848271132
19.61441114,-0.09727742523,-1.300493836,-1.86400044
19.61996614,-0.06337540597,-1.441599488,-1.873315811
19.62552114,-0.0401632078,-1.532768488,-1.878355265
19.63107614,-0.01924168877,-1.585912228,-1.877744436
19.63663114,0.007788302377,-1.618439794,-1.878355265
19.64218614,0.04596625641,-1.645164371,-1.871025205
19.64774114,0.08444963396,-1.671430826,-1.845674992
19.65329614,0.123391144,-1.691741467,-1.814674497
19.65885114,0.1673721522,-1.69678092,-1.778023601
19.66440614,0.2171562016,-1.687770963,-1.726407051
19.66996114,0.2753393948,-1.662726283,-1.661504507
19.67551614,0.340547353,-1.626075387,-1.591715217
19.68107114,0.4109475017,-1.576291323,-1.524216652
19.68662614,0.482722044,-1.522384048,-1.455954432
19.69218114,0.5548020005,-1.473363638,-1.380209327
19.69773614,0.6242858768,-1.424953938,-1.297439575
19.70329114,0.6890357137,-1.388303161,-1.225512266
19.70884614,0.740957737,-1.381889224,-1.165191174
19.71440114,0.7747070193,-1.403727055,-1.11174202
19.71995614,0.794559598,-1.436101913,-1.055391312
19.72551114,0.8018897176,-1.478250384,-0.9982771277
19.73106614,0.7947123051,-1.517344594,-0.9458969831
19.73662114,0.7844805717,-1.543000221,-0.8948912621
19.74217614,0.7710419297,-1.543305635,-0.8440381885
19.74773114,0.7601994276,-1.514748454,-0.7892146707
19.75328614,0.7531746626,-1.454274654,-0.7310314775
19.75884114,0.7524111271,-1.356386304,-0.6768187881
19.76439614,0.7534800768,-1.226734042,-0.6221479177
19.76995114,0.75225842,-1.085322857,-0.569462359
19.77550614,0.7470661998,-0.9385668039,-0.517998457
19.78106114,0.7368345261,-0.7745543122,-0.4657710493
19.78661614,0.7168292403,-0.60275352,-0.4188885093
19.79217114,0.6814001203,-0.4309527278,-0.3805578351
19.79772614,0.6267293096,-0.2464768738,-0.3573456407
19.80328114,0.5413633585,-0.07314895838,-0.3437542915
19.80883614,0.4169032574,0.04581354558,-0.3345915973
19.81439114,0.258235693,0.08704573661,-0.3193204105
19.81994614,0.08292251825,0.06856760383,-0.2932066917
19.82550114,-0.09956810623,0.03130592033,-0.26464957
19.83105614,-0.2875563502,-0.001221694518,-0.2464768738
19.83661114,-0.4944808483,-0.02351761982,-0.2411319613
19.84216614,-0.7108734846,-0.02229592577,-0.2476985604
19.84772114,-0.9342908859,0.01252236869,-0.260068208
19.85327614,-1.161373377,0.06673506647,-0.2547233105
19.85883114,-1.378224134,0.1421747059,-0.2290677279
19.86438614,-1.57018292,0.2513636351,-0.1928750277
19.86994114,-1.724727273,0.4004103839,-0.1527118087
19.87549614,-1.841704488,0.5761816502,-0.1117850468
19.88105114,-1.920198321,0.7400414348,-0.07513421029
19.88660614,-1.966011882,0.8852704167,-0.04902049154
19.89216114,-1.986475229,1.014770031,-0.02809897438
19.89771614,-1.990903974,1.124264359,-0.01084253844
19.90327114,-1.993499994,1.214517117,0.009773556143
19.90882614,-2.003273487,1.265980959,0.03222219273
19.91438114,-2.014726877,1.289193153,0.04795150831
19.91993614,-2.025416851,1.300799251,0.04688252881
19.92549114,-2.025874853,1.295148849,0.02489202656
19.93104614,-2.019461155,1.272547603,-0.009620844387
19.93660114,-2.010603666,1.243837714,-0.05100574717
19.94215614,-2.004189968,1.22215271,-0.08979454637
19.94771114,-2.002815485,1.186265349,-0.1259872466
19.95326614,-2.008007765,1.117086887,-0.1531699449
19.95882114,-2.015795946,1.008661509,-0.1718007922
19.96437614,-2.012894392,0.8498412371,-0.1878355294
19.96993114,-1.975785494,0.6319214702,-0.2089097649
19.97548614,-1.825058937,0.3738385141,-0.2417428046
19.98104114,-1.434574842,0.05283828825,-0.291526854
19.98659614,-0.8805363178,-0.371547848,-0.3486410677
19.99215114,-0.3597890437,-0.8855758309,-0.4028537571
19.99770614,-0.04779879749,-1.394258857,-0.4732539058
20.00326114,0.02611372061,-1.804137349,-0.5544965863
20.00881614,-0.07146912813,-2.081462145,-0.6203153729
20.01437114,-0.2499892414,-2.221651554,-0.6533011198
20.01992614,-0.4240806997,-2.223789454,-0.6539120078
20.02548114,-0.5279247165,-2.108186483,-0.6416950226
20.03103614,-0.5389199853,-1.916533232,-0.6361974478
20.03659114,-0.4708105326,-1.690672517,-0.6300889254
20.04214614,-0.3512371778,-1.478097677,-0.6209262609
20.04770114,-0.2107423097,-1.316223145,-0.5993938446
20.05325614,-0.07742489129,-1.228719234,-0.5592306852
20.05881114,0.03268032894,-1.214822531,-0.4929537475
20.06436614,0.1186570823,-1.245059371,-0.4133908749
20.06992114,0.1834068894,-1.29301095,-0.3358132839
20.07547614,0.2376195788,-1.342184186,-0.2730487287
20.08103114,0.2843494117,-1.377307892,-0.2171562016
20.08658614,0.3278722763,-1.374406338,-0.1466033459
20.09214114,0.3793361485,-1.329661727,-0.05909947306
20.09769614,0.4457657933,-1.24719739,0.04031591862
20.10325114,0.5376983285,-1.121057391,0.137746051
20.10880614,0.6644490957,-0.9591829181,0.2232646793
20.11436114,0.823574841,-0.7759287357,0.2938175201
20.11991614,1.012173891,-0.5919110179,0.3655920923
20.12547114,1.216044188,-0.4246915579,0.4370612204
20.13102614,1.425259352,-0.296108216,0.5039489865
20.13658114,1.617523551,-0.2252499312,0.5682406425
20.14213614,1.784742951,-0.2281514555,0.6361974478
20.14769114,1.924779654,-0.2916795611,0.7151494026
20.15324614,2.044047594,-0.3790307343,0.8035695553
20.15880114,2.152931213,-0.4592044353,0.8985562921
20.16435614,2.257233381,-0.5126535892,0.9912523627
20.16991114,2.362757206,-0.5262449384,1.077534556
20.17546614,2.466906548,-0.4795151055,1.152057886
20.18102114,2.559602737,-0.378267169,1.220014691
20.18657614,2.633057117,-0.2263189107,1.287360549
20.19213114,2.679481506,-0.03069507517,1.356844425
20.19768614,2.692920208,0.1852394342,1.41960907
20.20324114,2.66466856,0.3860554695,1.468934894
20.20879614,2.600987673,0.5334223509,1.513221383
20.21435114,2.520508528,0.6256603003,1.556438804
20.21990614,2.443388939,0.6749862432,1.601030707
20.22546114,2.374363184,0.6931589246,1.646386027
20.23101614,2.312667608,0.6867450476,1.681509733
20.23657114,2.254789829,0.6476507783,1.703347564
20.24212614,2.188971043,0.5711421967,1.698918939
20.24768114,2.090471983,0.4178195298,1.664253354
20.25323614,1.944326878,0.1571404636,1.60973525
20.25879114,1.76290524,-0.1250709742,1.552621007
20.26434614,1.559951186,-0.3193204105,1.502836943
20.26990114,1.322026134,-0.4282039404,1.490009189
20.27545614,1.034469843,-0.5280774832,1.518413544
20.28101114,0.7197307944,-0.6123743653,1.557202339
20.28656614,0.4104893506,-0.5853443742,1.602557778
20.29212114,0.1372879148,-0.3713951409,1.644095421
20.29767614,-0.06933116168,0.1139230132,1.681967974
20.30323114,-0.2017323077,1.020878434,1.736944199
20.30878614,-0.2257080674,2.465226889,1.815590739
20.31434114,-0.1676775664,3.952334404,1.90828681
20.31989614,-0.1301104724,4.644882679,1.970135093
20.32545114,-0.1172826737,4.52500391,1.99319458
20.33100614,-0.05848862603,3.944393396,1.992736459
20.33656114,0.09895725548,3.096690178,2.011825562
20.34211614,0.3391729295,2.198897362,2.08024025
20.34767114,0.5854970813,1.395327806,2.187902212
20.35322614,0.7715001106,0.7660024762,2.308697224
20.35878114,0.8929060102,0.3121429384,2.412999392
20.36433614,0.9416210651,0.03634541109,2.474694967
20.36989114,0.9237537384,-0.1143811494,2.477138281
20.37544614,0.8415948153,-0.197914511,2.434226274
20.38100114,0.6995728016,-0.2724378705,2.360771894
20.38655614,0.5372401476,-0.3293993771,2.267312288
20.39211114,0.3907895386,-0.31153211,2.163773775
20.39766614,0.2660239935,-0.1954711229,2.055806398
20.40322114,0.1731752008,-0.02901524492,1.960514307
20.40877614,0.1171299592,0.1108687744,1.903705478
20.41433114,0.1017060652,0.1704263836,1.8614043
20.41988614,0.1293469071,0.1427855492,1.816201568
20.42544114,0.1989834905,0.040621344,1.778023601
20.43099614,0.3032856584,-0.1033858955,1.743205309
20.43655114,0.4216373265,-0.2655658424,1.705790997
20.44210614,0.5189147592,-0.418124944,1.686549306
20.44766114,0.5905365944,-0.5370874405,1.69311583
20.45321614,0.6371136904,-0.6287145615,1.716175318
20.45877114,0.6653653979,-0.6774296165,1.73847127
20.46432614,0.6817055345,-0.665518105,1.746870399
20.46988114,0.6798729897,-0.6068767309,1.742747188
20.47543614,0.6577298045,-0.5241069198,1.734348059
20.48099114,0.625202179,-0.413849026,1.711288571
20.48654614,0.5874823332,-0.3063398898,1.67647028
20.49210114,0.545486629,-0.2310529798,1.631573081
20.49765614,0.5073086619,-0.1974563748,1.572168112
20.50321114,0.4773771465,-0.2255553454,1.506654739
20.50876614,0.4558447599,-0.3016058207,1.437781692
20.51432114,0.4451549351,-0.4136963189,1.362952948
20.51987614,0.4411844313,-0.5482354164,1.289803982
20.52543114,0.4399627447,-0.6682668924,1.229788303
20.53098614,0.4367557764,-0.7467607856,1.159082651
20.53654114,0.4100312293,-0.7855495811,1.088529825
20.54209614,0.3558185399,-0.7855495811,1.004385591
20.54765114,0.2768665254,-0.7572978735,0.9057337642
20.55320614,0.189209938,-0.6670452356,0.7901309133
20.55876114,0.08414421231,-0.4787515402,0.6591041684
20.56431614,-0.04535540938,-0.2214321345,0.520136416
20.56987114,-0.1963873953,0.06154286116,0.3723114133
20.57542614,-0.3610107303,0.3057290614,0.2192941606
20.58098114,-0.5160132051,0.5224271417,0.04291202128
20.58653614,-0.6426113248,0.7365291119,-0.169204697
20.59209114,-0.736070931,0.9600991607,-0.4149180055
20.59764614,-0.7953231335,1.183516622,-0.6896465421
20.60320114,-0.8309049606,1.411668062,-0.987434566
20.60875614,-0.8509102464,1.634474516,-1.31332159
20.61431114,-0.8542698622,1.822157383,-1.652647257
20.61986614,-0.8339592218,1.97181499,-1.996706963
20.62542114,-0.7893673778,2.073215485,-2.326717138
20.63097614,-0.7238540053,2.121319771,-2.612593651
20.63653114,-0.6583406329,2.13384223,-2.839523554
20.64208614,-0.6105418205,2.141477823,-3.019112587
20.64764114,-0.6372663975,2.125290394,-3.12524724
20.65319614,-0.7314895988,2.183320761,-3.18098712
20.65875114,-0.8606837988,2.419107914,-3.188622713
20.66430614,-1.018282413,2.706358671,-3.127537966
20.66986114,-1.215280652,2.80119276,-2.978491306
20.67541614,-1.34096241,2.727585793,-2.745758533
20.68097114,-1.218182087,2.784699917,-2.49805975
20.68652614,-0.9758284688,2.888544083,-2.329007864
20.69208114,-0.8564078808,2.675205469,-2.296022177
20.69763614,-0.9504783154,1.946006656,-2.401546001
20.70319114,-1.076771021,1.083032131,-2.573957682
20.70874614,-1.075854778,0.500436604,-2.671998739
20.71430114,-0.9894198179,0.1073564067,-2.684215546
20.71985614,-0.8822161555,-0.195776552,-2.64283061
20.72541114,-0.7947123051,-0.4463766217,-2.585411072
20.73096614,-0.7162184119,-0.6342121959,-2.527685881
20.73652114,-0.6423059106,-0.7438592315,-2.473167896
20.74207614,-0.5725166202,-0.7747070193,-2.434684515
20.74763114,-0.503185451,-0.7511894107,-2.422009468
20.75318614,-0.4353813827,-0.689493835,-2.439418554
20.75874114,-0.3674246371,-0.6125270724,-2.482941389
20.76429614,-0.3086305857,-0.5578562617,-2.532114506
20.76985114,-0.2559449971,-0.5260922313,-2.555021286
20.77540614,-0.2145601064,-0.5027272701,-2.557617426
20.78096114,-0.1817270666,-0.4914266169,-2.546011448
20.78651614,-0.1502684206,-0.5019637346,-2.517454147
20.79207114,-0.1214058921,-0.5395308137,-2.475916624
20.79762614,-0.09193251282,-0.604891479,-2.435753345
20.80318114,-0.06093201414,-0.6972821355,-2.400171518
20.80873614,-0.02076880634,-0.8112051487,-2.361535549
20.81429114,0.03222219273,-0.9362761378,-2.316638231
20.81984614,0.09300149232,-1.071884274,-2.261967421
20.82540114,0.1605001241,-1.214975238,-2.175379753
20.83095614,0.2331909388,-1.362036705,-2.060235023
20.83651114,0.3077143133,-1.51077795,-1.928444743
20.84206614,0.3750602305,-1.646996975,-1.799556017
20.84762114,0.4298837483,-1.754353285,-1.687770963
20.85317614,0.467145443,-1.821699262,-1.595533013
20.85873114,0.478446126,-1.85254705,-1.505433083
20.86428614,0.4680617154,-1.841399074,-1.415485859
20.86984114,0.4413371384,-1.794516563,-1.338671803
20.87539614,0.4008685052,-1.724421859,-1.288429618
20.88095114,0.3463504016,-1.647607803,-1.26750803
20.88650614,0.2779355049,-1.58423233,-1.259261608
20.89206114,0.2029540092,-1.525438309,-1.247350097
20.89761614,0.1278197914,-1.459314108,-1.22841382
20.90317114,0.05573981255,-1.380972981,-1.211920977
20.90872614,-0.009773556143,-1.294690728,-1.195275426
20.91428114,-0.06780404598,-1.202300072,-1.178324342
20.91983614,-0.1198787764,-1.108229637,-1.158471823
20.92539114,-0.1666085869,-1.020420313,-1.13357985
20.93094614,-0.206771791,-0.9423846006,-1.10441184
20.93650114,-0.2397575527,-0.8866447806,-1.073105931
20.94205614,-0.2644968629,-0.8590039611,-1.040731072
20.94761114,-0.2846548259,-0.8616000414,-1.001942158
20.95316614,-0.2967190444,-0.9101623893,-0.956281364
20.95872114,-0.300231427,-1.008508801,-0.9095515609
20.96427614,-0.291526854,-1.157402873,-0.8640434742
20.96983114,-0.2779355049,-1.351804972,-0.8156337738
20.97538614,-0.2615953386,-1.566823244,-0.765697062
20.98094114,-0.24693501,-1.788408041,-0.7148439884
20.98649614,-0.2357870489,-2.000677586,-0.656355381
20.99205114,-0.2264716178,-2.181182861,-0.573738277
20.99760614,-0.2278460264,-2.308849812,-0.4552339315
21.00316114,-0.2356343269,-2.352372885,-0.3205420971
21.00871614,-0.2487675399,-2.318165302,-0.1939440072
21.01427114,-0.2712161839,-2.211572409,-0.0794101432
21.01982614,-0.3087832928,-2.029234648,0.02672456764
21.02538114,-0.3662029207,-1.729003191,0.137746051
21.03093614,-0.4529432356,-1.254374862,0.2466295809
21.03649114,-0.5311316848,-0.6445965767,0.3272614181
21.04204614,-0.5906893015,0.003665083554,0.3851391971
21.04760114,-0.6363501549,0.629478097,0.4419479966
21.05315614,-0.6731536984,1.193595529,0.5005893111
21.05871114,-0.7026270628,1.647913218,0.5471664071
21.06426614,-0.7411104441,1.978534222,0.587176919
21.06982114,-0.7864658237,2.215543032,0.6051968932
21.07537614,-0.8359444737,2.378180981,0.6045860648
21.08093114,-0.8892409205,2.485537529,0.5986303091
21.08648614,-0.9475768209,2.542040825,0.5854970813
21.09204114,-0.9988879561,2.547385693,0.5598415136
21.09759614,-1.035996914,2.532114506,0.5091412067
21.10315114,-1.032484531,2.52402091,0.4289674759
21.10870614,-0.9686510563,2.526769638,0.3284831047
21.11426114,-0.841136694,2.514858246,0.2244863659
21.11981614,-0.6224533319,2.420024157,0.1226275861
21.12537114,-0.3394783735,2.167591572,0.01481304597
21.13092614,-0.05955760926,1.716328144,-0.09300149232
21.13648114,0.1661504507,1.106549859,-0.2005106062
21.14203614,0.3248180151,0.4497362971,-0.3083251417
21.14759114,0.4011739492,-0.1600419879,-0.3932329118
