"Time (s)","Gyroscope x (rad/s)","Gyroscope y (rad/s)","Gyroscope z (rad/s)"
2.748046300E-2,-2.559449971E-1,3.145863414E-1,-5.008947477E-2
3.303546300E-2,-3.153499067E-1,3.096995652E-1,-5.405998230E-2
3.859046300E-2,-3.523061574E-1,2.976353168E-1,-7.116370648E-2
4.414546300E-2,-3.648285270E-1,2.757975459E-1,-1.009425074E-1
4.970046300E-2,-3.437542915E-1,2.484621257E-1,-1.461452097E-1
5.525546300E-2,-2.930539846E-1,2.298312783E-1,-1.980672181E-1
6.081046300E-2,-2.244863659E-1,2.246390730E-1,-2.484621257E-1
6.636546300E-2,-1.519482583E-1,2.261662036E-1,-2.921377122E-1
7.192046300E-2,-8.597674966E-2,2.278460264E-1,-3.225273490E-1
7.747546300E-2,-3.252761811E-2,2.176143378E-1,-3.342861533E-1
8.303046300E-2,4.886778072E-3,1.931804419E-1,-3.313846290E-1
8.858546300E-2,2.886253223E-2,1.672194302E-1,-3.188622594E-1
9.414046300E-2,3.726168349E-2,1.461452097E-1,-3.049654961E-1
9.969546300E-2,2.794626169E-2,1.368297935E-1,-2.883199155E-1
1.052504630E-1,4.886778072E-3,1.348445266E-1,-2.698417902E-1
1.108054630E-1,-2.779355086E-2,1.288887709E-1,-2.480039895E-1
1.163604630E-1,-6.062658876E-2,1.137702987E-1,-2.250972092E-1
1.219154630E-1,-8.628217876E-2,9.101624042E-2,-2.018850148E-1
1.274704630E-1,-9.788827598E-2,6.169557199E-2,-1.768402755E-1
1.330254630E-1,-8.643488586E-2,2.825168520E-2,-1.516428292E-1
1.385804630E-1,-5.680879578E-2,-3.054236295E-3,-1.336228400E-1
1.441354630E-1,-1.801999472E-2,-3.634541109E-2,-1.256818175E-1
1.496904630E-1,1.771457121E-2,-6.536065787E-2,-1.235438585E-1
1.552454630E-1,4.596625641E-2,-9.193251282E-2,-1.238492802E-1
1.608004630E-1,6.306997687E-2,-1.151447073E-1,-1.236965731E-1
1.663554630E-1,7.177454978E-2,-1.404948682E-1,-1.194206402E-1
1.719104630E-1,7.498150319E-2,-1.553079188E-1,-1.102579311E-1
1.774654630E-1,7.543963939E-2,-1.638597846E-1,-9.681928903E-2
1.830204630E-1,7.742489129E-2,-1.672194302E-1,-8.444963396E-2
1.885754630E-1,8.139539510E-2,-1.644706279E-1,-7.223268598E-2
1.941304630E-1,8.292251825E-2,-1.560714692E-1,-6.200099736E-2
1.996854630E-1,7.925742865E-2,-1.412584335E-1,-5.451811850E-2
2.052404630E-1,7.085828483E-2,-1.264453828E-1,-4.642439261E-2
2.107954630E-1,5.925218388E-2,-1.116323397E-1,-3.695625812E-2
2.163504630E-1,4.627167806E-2,-9.987352788E-2,-2.641914412E-2
2.219054630E-1,3.558185324E-2,-9.437590092E-2,-1.756185852E-2
2.274604630E-1,2.550287358E-2,-9.941539168E-2,-1.588202827E-2
2.330154630E-1,1.588202827E-2,-1.114796251E-1,-2.397575416E-2
2.385704630E-1,7.941014133E-3,-1.276670843E-1,-3.833066672E-2
2.441254630E-1,-1.527118147E-4,-1.421747059E-1,-5.268557742E-2
2.496804630E-1,-5.497625098E-3,-1.565296054E-1,-6.352811307E-2
2.552354630E-1,-4.581354558E-3,-1.743968874E-1,-6.810946763E-2
2.607904630E-1,-3.054236295E-3,-1.983726472E-1,-7.070557028E-2
2.663454630E-1,9.162708884E-4,-2.290677279E-1,-7.375980914E-2
2.719004630E-1,3.970507067E-3,-2.631224692E-1,-8.032641560E-2
2.774554630E-1,9.162708884E-4,-3.006895781E-1,-9.071081877E-2
2.830104630E-1,-9.773556143E-3,-3.431434333E-1,-1.053711548E-1
2.885654630E-1,-2.229592577E-2,-3.965925872E-1,-1.298050433E-1
2.941204630E-1,-4.734066129E-2,-4.645493329E-1,-1.653869003E-1
2.996754630E-1,-7.910472155E-2,-5.292991400E-1,-2.041756958E-1
3.052304630E-1,-1.183516532E-1,-5.774033666E-1,-2.423536479E-1
3.107854630E-1,-1.575985998E-1,-6.091674566E-1,-2.753393948E-1
3.163404630E-1,-2.041756958E-1,-6.410841942E-1,-3.188622594E-1
3.218954630E-1,-2.568612695E-1,-6.668924689E-1,-3.816268146E-1
3.274504630E-1,-3.167243004E-1,-6.723901033E-1,-4.601207078E-1
3.330054630E-1,-3.851391971E-1,-6.517740488E-1,-5.548020005E-1
3.385604630E-1,-4.679090083E-1,-6.088619828E-1,-6.647545099E-1
3.441154630E-1,-5.612159371E-1,-5.483881235E-1,-7.895200849E-1
3.496704630E-1,-6.690304875E-1,-4.595098495E-1,-9.240592122E-1
3.552254630E-1,-7.875348330E-1,-3.494046330E-1,-1.052795291E0
3.607804630E-1,-8.875610828E-1,-3.127537966E-1,-1.132816195E0
3.663354630E-1,-9.749122262E-1,-3.461976945E-1,-1.173132181E0
3.718904630E-1,-1.131899953E0,-3.144336343E-1,-1.260177851E0
3.774454630E-1,-1.413042426E0,-9.865183383E-2,-1.444501042E0
3.830004630E-1,-1.729766726E0,2.861819267E-1,-1.671736240E0
3.885554630E-1,-1.955627441E0,7.259919643E-1,-1.845369577E0
3.941104630E-1,-2.095358849E0,1.187487125E0,-1.919892907E0
3.996654630E-1,-2.217986345E0,1.606070161E0,-1.907675982E0
4.052204630E-1,-2.341835737E0,1.854532242E0,-1.825975180E0
4.107754630E-1,-2.452704430E0,1.932568073E0,-1.714037418E0
4.163304630E-1,-2.533336401E0,1.902025700E0,-1.595227599E0
4.218854630E-1,-2.563573122E0,1.827196836E0,-1.484206080E0
4.274404630E-1,-2.545247793E0,1.750840902E0,-1.379598498E0
4.329954630E-1,-2.480192661E0,1.700598717E0,-1.271325827E0
4.385504630E-1,-2.365047932E0,1.652341843E0,-1.141978979E0
4.441054630E-1,-2.192330837E0,1.556744218E0,-9.912523627E-1
4.496604630E-1,-1.955780268E0,1.383721709E0,-8.335011005E-1
4.552154630E-1,-1.660282850E0,1.132816195E0,-6.832326651E-1
4.607704630E-1,-1.323095202E0,8.305995464E-1,-5.528167486E-1
4.663254630E-1,-9.692618847E-1,5.305208564E-1,-4.410317242E-1
4.718804630E-1,-6.178719997E-1,2.492256761E-1,-3.480302393E-1
4.774354630E-1,-2.880144715E-1,-8.704573847E-3,-2.702999115E-1
4.829904630E-1,5.344913341E-3,-2.473931462E-1,-2.009687424E-1
4.885454630E-1,2.614426315E-1,-4.781406820E-1,-1.392731816E-1
4.941004630E-1,4.834856093E-1,-7.145385742E-1,-7.360709459E-2
4.996554630E-1,6.713211536E-1,-9.463551044E-1,-3.359660041E-3
5.052104630E-1,8.171609044E-1,-1.156181097E0,7.085828483E-2
5.107654630E-1,9.093988538E-1,-1.340198874E0,1.481304616E-1
5.163204630E-1,9.486457705E-1,-1.486954927E0,2.257080674E-1
5.218754630E-1,9.378032684E-1,-1.574764252E0,2.977880239E-1
5.274304630E-1,9.017632604E-1,-1.611415029E0,3.593308926E-1
5.329854630E-1,8.522846103E-1,-1.610651493E0,4.074351192E-1
5.385404630E-1,7.928797603E-1,-1.578276634E0,4.408790171E-1
5.440954630E-1,7.178982496E-1,-1.502836943E0,4.579827189E-1
5.496504630E-1,6.151232123E-1,-1.397160411E0,4.588989913E-1
5.552054630E-1,4.908157587E-1,-1.271325827E0,4.488200247E-1
5.607604630E-1,3.431434333E-1,-1.126096964E0,4.333961308E-1
5.663154630E-1,1.693574041E-1,-9.579612017E-1,4.176668227E-1
5.718704630E-1,-1.893626526E-2,-7.889092565E-1,3.972034156E-1
5.774254630E-1,-2.061609477E-1,-6.375718117E-1,3.672719002E-1
5.829804630E-1,-3.790307343E-1,-5.099047422E-1,3.332171738E-1
5.885354630E-1,-5.363239050E-1,-4.089622498E-1,2.977880239E-1
5.940904630E-1,-6.754443645E-1,-3.416163325E-1,2.695363462E-1
5.996454630E-1,-7.886037827E-1,-3.048127890E-1,2.531961799E-1
6.052004630E-1,-8.751913905E-1,-2.912214398E-1,2.480039895E-1
6.107554630E-1,-9.367342591E-1,-3.466558158E-1,2.435753495E-1
6.163104630E-1,-9.859074950E-1,-4.705050886E-1,2.339545041E-1
6.218654630E-1,-1.014006495E0,-5.854970813E-1,2.318165302E-1
6.274204630E-1,-1.010341406E0,-7.101099491E-1,2.512109280E-1
6.329754630E-1,-9.784246087E-1,-8.872556686E-1,3.130592108E-1
6.385304630E-1,-9.313893318E-1,-1.089904189E0,4.660764635E-1
6.440854630E-1,-8.756495714E-1,-1.241241574E0,6.995728016E-1
6.496404630E-1,-8.260182142E-1,-1.361883998E0,9.495620728E-1
6.551954630E-1,-7.798992395E-1,-1.486191392E0,1.178324342E0
6.607504630E-1,-7.203416228E-1,-1.664406061E0,1.356539011E0
6.663054630E-1,-6.319214702E-1,-1.949366331E0,1.473669052E0
6.718604630E-1,-5.164713860E-1,-2.305490255E0,1.535211921E0
6.774154630E-1,-3.846810758E-1,-2.673678398E0,1.579956412E0
6.829704630E-1,-2.573194206E-1,-2.972229958E0,1.628824234E0
6.885254630E-1,-1.553079188E-1,-3.110586882E0,1.686091185E0
6.940804630E-1,-5.558710173E-2,-3.070729256E0,1.741525531E0
6.996354630E-1,5.787777901E-2,-2.825321198E0,1.802152157E0
7.051904630E-1,1.572931707E-1,-2.417122602E0,1.897749662E0
7.107454630E-1,2.415900975E-1,-1.944632292E0,2.008465767E0
7.163004630E-1,3.159607351E-1,-1.486038685E0,2.110171795E0
7.218554630E-1,3.770454824E-1,-1.064248681E0,2.188513041E0
7.274104630E-1,4.236225784E-1,-7.050704360E-1,2.236006498E0
7.329654630E-1,4.778352678E-1,-4.501944184E-1,2.259524107E0
7.385204630E-1,5.529694557E-1,-3.243598938E-1,2.276933193E0
7.440754630E-1,6.548282504E-1,-3.352024257E-1,2.310529709E0
7.496304630E-1,7.823426127E-1,-4.764608741E-1,2.364589691E0
7.551854630E-1,9.142856598E-1,-7.127060294E-1,2.420634985E0
7.607404630E-1,1.025307178E0,-9.952229261E-1,2.449039459E0
7.662954630E-1,1.112810969E0,-1.266286373E0,2.437891483E0
7.718504630E-1,1.171910524E0,-1.505127668E0,2.386580229E0
7.774054630E-1,1.203216434E0,-1.716480851E0,2.308238983E0
7.829604630E-1,1.217876673E0,-1.933484316E0,2.245169163E0
7.885154630E-1,1.206728816E0,-2.068176031E0,2.206532955E0
7.940704630E-1,1.168703556E0,-2.130024433E0,2.171867371E0
7.996254630E-1,1.118003249E0,-2.199508190E0,2.130482435E0
8.051804630E-1,1.056460381E0,-2.318165302E0,2.068939686E0
8.107354630E-1,9.816315174E-1,-2.479123592E0,1.975785494E0
8.162904630E-1,8.864920735E-1,-2.625116110E0,1.860335350E0
8.218454630E-1,7.640172243E-1,-2.686811686E0,1.735264301E0
8.274004630E-1,6.502469182E-1,-2.643441439E0,1.616301894E0
8.329554630E-1,5.575508475E-1,-2.494853020E0,1.531088710E0
8.385104630E-1,4.709632397E-1,-2.297549248E0,1.491994381E0
8.440654630E-1,4.254551232E-1,-2.097038746E0,1.504669547E0
8.496204630E-1,4.224008918E-1,-1.848881960E0,1.562089205E0
8.551754630E-1,4.366030693E-1,-1.582857966E0,1.635238171E0
8.607304630E-1,4.761554301E-1,-1.376238823E0,1.703347564E0
8.662854630E-1,5.486935377E-1,-1.271783948E0,1.753589749E0
8.718404630E-1,6.513158679E-1,-1.314085126E0,1.790851474E0
8.773954630E-1,7.870767117E-1,-1.540709496E0,1.844758749E0
8.829504630E-1,9.437590241E-1,-1.844300628E0,1.893931985E0
8.885054630E-1,1.136939406E0,-2.186833143E0,1.972120404E0
8.940604630E-1,1.350888729E0,-2.525395393E0,2.123305082E0
8.996154630E-1,1.567739487E0,-2.842730522E0,2.358175755E0
9.051704630E-1,1.783826709E0,-3.055916071E0,2.659018040E0
9.107254630E-1,1.969829679E0,-3.113335848E0,2.967495918E0
9.162804630E-1,2.092304468E0,-3.053167343E0,3.216416359E0
9.218354630E-1,2.139034271E0,-2.943214893E0,3.391118526E0
9.273904630E-1,2.125901222E0,-2.867316961E0,3.514815092E0
9.329454630E-1,2.071230412E0,-2.860903025E0,3.617742777E0
9.385004630E-1,2.006785870E0,-2.905647755E0,3.728153467E0
9.440554630E-1,1.960819721E0,-2.958333254E0,3.853988171E0
9.496104630E-1,1.953031421E0,-2.971313715E0,3.984709263E0
9.551654630E-1,1.973189354E0,-2.909160137E0,4.108100414E0
9.607204630E-1,2.004953384E0,-2.771261215E0,4.206294060E0
9.662754630E-1,2.013658047E0,-2.585411072E0,4.259896278E0
9.718304630E-1,1.980519533E0,-2.366575003E0,4.270738602E0
9.773854630E-1,1.897902489E0,-2.131246090E0,4.261728764E0
9.829404630E-1,1.776191115E0,-1.903094649E0,4.241265297E0
9.884954630E-1,1.635848999E0,-1.673416018E0,4.200033188E0
9.940504630E-1,1.498102903E0,-1.405406833E0,4.130854607E0
9.996054630E-1,1.384179831E0,-1.070662498E0,4.031439304E0
1.005160463E0,1.297744989E0,-6.948387623E-1,3.904077530E0
1.010715463E0,1.224596024E0,-3.132119179E-1,3.754267216E0
1.016270463E0,1.152210593E0,5.207473040E-2,3.576816082E0
1.021825463E0,1.071426034E0,3.941491842E-1,3.379817963E0
1.027380463E0,9.837695360E-1,6.826218367E-1,3.167090416E0
1.032935463E0,8.874083757E-1,9.135220647E-1,2.969175816E0
1.038490463E0,7.762341499E-1,1.099525094E0,2.810660839E0
1.044045463E0,6.525375843E-1,1.241394401E0,2.686200857E0
1.049600463E0,5.161659122E-1,1.343253136E0,2.587701797E0
1.055155463E0,3.643703759E-1,1.436712742E0,2.511345863E0
1.060710463E0,2.139492482E-1,1.490925431E0,2.434226274E0
1.066265463E0,8.918370306E-2,1.466644287E0,2.342293739E0
1.071820463E0,-2.901524538E-3,1.406781197E0,2.237228155E0
1.077375463E0,-5.375456065E-2,1.325996637E0,2.124526739E0
1.082930463E0,-7.116370648E-2,1.225817680E0,2.003731728E0
1.088485463E0,-9.254335612E-2,1.131289124E0,1.884921908E0
1.094040463E0,-1.221694499E-1,1.060889006E0,1.790393353E0
1.099595463E0,-1.467560530E-1,1.024085402E0,1.725032687E0
1.105150463E0,-1.516428292E-1,1.035844207E0,1.695406556E0
1.110705463E0,-1.238492802E-1,1.069593549E0,1.705790997E0
1.116260463E0,-6.306997687E-2,1.096928954E0,1.753742456E0
1.121815463E0,8.093725890E-3,1.122584581E0,1.825058937E0
1.127370463E0,8.536590636E-2,1.129303813E0,1.887823462E0
1.132925463E0,1.853921413E-1,1.092958450E0,1.913937211E0
1.138480463E0,3.272614181E-1,1.020420313E0,1.916075110E0
1.144035463E0,4.989095032E-1,9.217684865E-1,1.920503736E0
1.149590463E0,6.649072170E-1,8.214368224E-1,1.925237894E0
1.155145463E0,7.828007340E-1,7.351546884E-1,1.902025700E0
1.160700463E0,8.365553021E-1,6.716265678E-1,1.841551781E0
1.166255463E0,8.218950033E-1,6.383354068E-1,1.752215385E0
1.171810463E0,7.353073955E-1,6.410841942E-1,1.617981672E0
1.177365463E0,6.033644080E-1,6.945333481E-1,1.461757541E0
1.182920463E0,4.547757804E-1,7.750124335E-1,1.291025639E0
1.188475463E0,3.202366829E-1,8.348754644E-1,1.110825777E0
1.194030463E0,2.250972092E-1,8.489249945E-1,9.179506898E-1
1.199585463E0,1.870719790E-1,8.160919547E-1,7.220214605E-1
1.205140463E0,1.973036677E-1,7.719582319E-1,5.633538961E-1
1.210695463E0,2.238755226E-1,7.276718020E-1,4.555393457E-1
1.216250463E0,2.408265322E-1,6.994200945E-1,3.907895386E-1
1.221805463E0,2.431172132E-1,7.029324770E-1,3.723114133E-1
1.227360463E0,2.237228155E-1,7.375980616E-1,3.956763148E-1
1.232915463E0,1.640124917E-1,8.338065147E-1,4.184303582E-1
1.238470463E0,3.878879920E-2,9.999569654E-1,4.303418994E-1
1.244025463E0,-1.325538605E-1,1.225206852E0,4.558447599E-1
1.249580463E0,-3.223746419E-1,1.478097677E0,5.102101564E-1
1.255135463E0,-4.946335554E-1,1.694948435E0,5.960342288E-1
1.260690463E0,-5.964923501E-1,1.791462302E0,6.780404449E-1
1.266245463E0,-6.232169271E-1,1.760461807E0,7.261446714E-1
1.271800463E0,-5.743491650E-1,1.606833696E0,7.438592315E-1
1.277355463E0,-4.741701782E-1,1.378071427E0,7.452336550E-1
1.282910463E0,-3.495573401E-1,1.146560311E0,7.270609736E-1
1.288465463E0,-2.432699203E-1,9.315420985E-1,6.873558760E-1
1.294020463E0,-1.768402755E-1,7.736380696E-1,6.198572516E-1
1.299575463E0,-1.679829955E-1,7.224795818E-1,5.511369109E-1
1.305130463E0,-2.334963679E-1,8.104416132E-1,5.117372870E-1
1.310685463E0,-3.816268146E-1,1.056154966E0,5.146388412E-1
1.316240463E0,-6.000047326E-1,1.393648028E0,5.416688323E-1
1.321795463E0,-8.469397426E-1,1.717702508E0,5.526640415E-1
1.327350463E0,-1.052947998E0,1.951656938E0,5.462501645E-1
1.332905463E0,-1.157860994E0,2.057486296E0,5.202891231E-1
1.338460463E0,-1.142437100E0,2.049392462E0,4.928010404E-1
1.344015463E0,-1.015533566E0,1.965401053E0,4.862344265E-1
1.349570463E0,-8.136485219E-1,1.847354770E0,5.105155706E-1
1.355125463E0,-5.960342288E-1,1.722436547E0,5.442649126E-1
1.360680463E0,-3.878880143E-1,1.568808436E0,5.732801557E-1
1.366235463E0,-2.119639963E-1,1.422663212E0,5.880932212E-1
1.371790463E0,-9.055810422E-2,1.345696568E0,5.894675851E-1
1.377345463E0,-6.413896382E-2,1.379598498E0,5.841227174E-1
1.382900463E0,-1.282779276E-1,1.498102903E0,5.763344169E-1
1.388455463E0,-2.452551723E-1,1.659824729E0,5.586197972E-1
1.394010463E0,-3.799470067E-1,1.843995214E0,5.256340504E-1
1.399565463E0,-4.943281412E-1,2.037022829E0,4.924955964E-1
1.405120463E0,-5.522059202E-1,2.258455038E0,4.451549351E-1
1.410675463E0,-5.578562617E-1,2.453773499E0,3.958290219E-1
1.416230463E0,-5.106683373E-1,2.569376230E0,3.481829464E-1
1.421785463E0,-4.706578255E-1,2.603889227E0,3.042019308E-1
1.427340463E0,-4.517215490E-1,2.576095581E0,2.606790662E-1
1.432895463E0,-4.042281806E-1,2.483705044E0,2.202104330E-1
1.438450463E0,-3.448232710E-1,2.369934559E0,2.228065431E-1
1.444005463E0,-3.098522723E-1,2.277849436E0,2.725905776E-1
1.449560463E0,-3.032856584E-1,2.243947506E0,3.408527672E-1
1.455115463E0,-3.046600819E-1,2.355121613E0,4.390464723E-1
1.460670463E0,-3.080197275E-1,2.411472321E0,5.129590034E-1
1.466225463E0,-3.277195692E-1,2.374210596E0,5.431959033E-1
1.471780463E0,-3.324536085E-1,2.318928957E0,5.404471159E-1
1.477335463E0,-2.942756712E-1,2.329771519E0,5.363239050E-1
1.482890463E0,-2.455606014E-1,2.368102074E0,5.309789777E-1
1.488445463E0,-2.067717910E-1,2.354052544E0,5.074613690E-1
1.494000463E0,-1.565296054E-1,2.288997412E0,4.892886579E-1
1.499555463E0,-9.422318637E-2,2.167896986E0,4.873034060E-1
1.505110463E0,-2.657185495E-2,2.084058046E0,4.940227270E-1
1.510665463E0,4.214845970E-2,2.043284178E0,5.134171247E-1
1.516220463E0,1.015533581E-1,1.941883445E0,5.847335458E-1
1.521775463E0,1.534753740E-1,1.805969954E0,7.125533223E-1
1.527330463E0,1.672194302E-1,1.677692056E0,8.654178381E-1
1.532885463E0,1.346918195E-1,1.564837933E0,1.001942158E0
1.538440463E0,7.238540053E-2,1.524522066E0,1.098914266E0
1.543995463E0,-6.261184346E-3,1.551857471E0,1.145949483E0
1.549550463E0,-1.064401343E-1,1.579192877E0,1.122431874E0
1.555105463E0,-2.289150059E-1,1.633863688E0,1.068830013E0
1.560660463E0,-3.704788685E-1,1.731293797E0,9.834640622E-1
1.566215463E0,-5.633538961E-1,1.849645495E0,8.393041492E-1
1.571770463E0,-8.136485219E-1,1.994416356E0,6.600204706E-1
1.577325463E0,-1.086544514E0,2.180113792E0,4.630222321E-1
1.582880463E0,-1.330272675E0,2.382457018E0,2.944283783E-1
1.588435463E0,-1.480693698E0,2.555784941E0,1.753131598E-1
1.593990463E0,-1.477639556E0,2.547691107E0,1.276670843E-1
1.599545463E0,-1.368145108E0,2.389939785E0,1.409530044E-1
1.605100463E0,-1.256360054E0,2.192483425E0,1.223221645E-1
1.610655463E0,-1.145185947E0,1.929971933E0,4.031591862E-2
1.616210463E0,-1.014006495E0,1.636459827E0,-3.206948191E-2
1.621765463E0,-9.115368128E-1,1.395938754E0,-7.101099193E-2
1.627320463E0,-8.564078808E-1,1.264301062E0,-9.636115283E-2
1.632875463E0,-8.336538076E-1,1.177713513E0,-8.964183182E-2
1.638430463E0,-8.231166601E-1,1.090820551E0,-5.390727147E-2
1.643985463E0,-8.205205798E-1,1.003927469E0,-8.399149403E-3
1.649540463E0,-8.005153537E-1,8.822161555E-1,2.382304333E-2
1.655095463E0,-7.522584200E-1,7.198835015E-1,2.947338112E-2
1.660650463E0,-6.726955175E-1,5.036435723E-1,1.924168877E-2
1.666205463E0,-5.676298141E-1,2.602209449E-1,3.054236295E-4
1.671760463E0,-4.778352678E-1,6.566607859E-3,-2.153236605E-2
1.677315463E0,-4.294256270E-1,-2.289150059E-1,-6.276455522E-2
1.682870463E0,-3.888042867E-1,-4.640912116E-1,-1.858502775E-1
1.688425463E0,-3.078670204E-1,-7.319477201E-1,-4.133908749E-1
1.693980463E0,-2.368560284E-1,-9.100096822E-1,-6.306998134E-1
1.699535463E0,-2.452551723E-1,-9.652913809E-1,-7.762341499E-1
1.705090463E0,-3.581092060E-1,-9.135220647E-1,-8.028060198E-1
1.710645463E0,-5.500679612E-1,-7.240067124E-1,-7.414158583E-1
1.716200463E0,-7.812736630E-1,-4.362976551E-1,-6.476507783E-1
1.721755463E0,-1.017671585E0,-2.113531530E-1,-5.865660906E-1
1.727310463E0,-1.189930439E0,-1.815743446E-1,-5.937435627E-1
1.732865463E0,-1.228566527E0,-3.127537966E-1,-6.400152445E-1
1.738420463E0,-1.248419046E0,-3.720059693E-1,-6.759024858E-1
1.743975463E0,-1.313168883E0,-2.829749882E-1,-6.899519563E-1
1.749530463E0,-1.402657986E0,-1.510319859E-1,-7.029324770E-1
1.755085463E0,-1.481457353E0,-2.336490713E-2,-7.423321605E-1
1.760640463E0,-1.541167617E0,8.704573661E-2,-8.108997345E-1
1.766195463E0,-1.573084354E0,1.044548824E-1,-8.672503829E-1
1.771750463E0,-1.584385037E0,9.208522737E-2,-8.736643195E-1
1.777305463E0,-1.566975951E0,9.086353332E-2,-8.336538076E-1
1.782860463E0,-1.474585295E0,1.230857223E-1,-7.927270532E-1
1.788415463E0,-1.291789293E0,1.349972486E-1,-7.328640223E-1
1.793970463E0,-1.046992183E0,8.063183725E-2,-6.305471063E-1
1.799525463E0,-7.882983685E-1,-4.810422286E-2,-4.900522232E-1
1.805080463E0,-5.473191738E-1,-2.150182426E-1,-3.124483824E-1
1.810635463E0,-3.402419090E-1,-3.914003670E-1,-1.258345395E-1
1.816190463E0,-1.435490996E-1,-5.557183027E-1,4.734066129E-2
1.821745463E0,3.359659761E-2,-5.865660906E-1,1.524063945E-1
1.827300463E0,1.574458778E-1,-5.418215394E-1,1.915006191E-1
1.832855463E0,2.435753495E-1,-5.091412067E-1,2.125748396E-1
1.838410463E0,3.132119179E-1,-4.944808483E-1,2.391466945E-1
1.843965463E0,3.582619131E-1,-5.054761171E-1,2.698417902E-1
1.849520463E0,3.655920923E-1,-5.349494815E-1,2.907632887E-1
1.855075463E0,3.484883606E-1,-5.691569448E-1,2.982461751E-1
1.860630463E0,3.159607351E-1,-5.891621709E-1,2.953446507E-1
1.866185463E0,2.721324563E-1,-5.836645365E-1,2.857238054E-1
1.871740463E0,2.073826492E-1,-5.748072863E-1,2.625116110E-1
1.877295463E0,1.154501289E-1,-5.685460567E-1,2.211267054E-1
1.882850463E0,1.588202827E-2,-5.563291311E-1,1.568350345E-1
1.888405463E0,-7.146912813E-2,-5.205945969E-1,7.498150319E-2
1.893960463E0,-1.389677525E-1,-4.679090083E-1,-1.053711493E-2
1.899515463E0,-1.696628332E-1,-3.987305462E-1,-8.475505561E-2
1.905070463E0,-1.409530044E-1,-3.023693860E-1,-1.319430023E-1
1.910625463E0,-6.413896102E-3,-2.005106062E-1,-6.566607952E-2
1.916180463E0,2.806843221E-1,6.016845629E-2,1.137702987E-1
1.921735463E0,6.445965767E-1,4.986040890E-1,2.892361879E-1
1.927290463E0,9.309312105E-1,6.951441765E-1,3.600944579E-1
1.932845463E0,1.153126955E0,6.517740488E-1,3.674246371E-1
1.938400463E0,1.412584305E0,6.097782850E-1,4.130854607E-1
1.943955463E0,1.684716702E0,5.983248949E-1,5.008947253E-1
1.949510463E0,1.950587988E0,5.995466113E-1,5.833591223E-1
1.955065463E0,2.193552494E0,6.111527085E-1,6.221479177E-1
1.960620463E0,2.365505934E0,5.002838969E-1,5.761816502E-1
1.966175463E0,2.395590305E0,1.229330078E-1,4.309527278E-1
1.971730463E0,2.320303202E0,-3.066453338E-1,2.528907657E-1
1.977285463E0,2.286706686E0,-4.161396921E-1,1.389677525E-1
1.982840463E0,2.284263372E0,-3.324536085E-1,1.116323397E-1
1.988395463E0,2.228065491E0,-3.223746419E-1,1.847812980E-1
1.993950463E0,2.050003290E0,-5.276193023E-1,3.020639718E-1
1.999505463E0,1.754811406E0,-7.434011102E-1,3.915531039E-1
2.005060463E0,1.425717473E0,-7.644753456E-1,4.327852726E-1
2.010615463E0,1.069440842E0,-7.715001106E-1,3.953709006E-1
2.016170463E0,6.345176101E-1,-6.890357137E-1,2.730487287E-1
2.021725463E0,1.258345395E-1,-2.296785712E-1,7.528692484E-2
2.027280463E0,-4.111002088E-1,6.224533319E-1,-1.314848661E-1
2.032835463E0,-9.361234307E-1,1.470920205E0,-2.765611112E-1
2.038390463E0,-1.392579079E0,2.156443596E0,-3.732276857E-1
2.043945463E0,-1.696170092E0,2.679176092E0,-4.494308829E-1
2.049500463E0,-1.807649732E0,3.056068897E0,-5.143333673E-1
2.055055463E0,-1.747023106E0,3.280097008E0,-5.312843919E-1
2.060610463E0,-1.568961143E0,3.364852190E0,-4.976878166E-1
2.066165463E0,-1.325233102E0,3.386537313E0,-4.367557764E-1
2.071720463E0,-1.072036982E0,3.302851200E0,-3.990359604E-1
2.077275463E0,-8.322793841E-1,3.082793474E0,-3.746020794E-1
2.082830463E0,-6.027535200E-1,2.865179062E0,-3.744493723E-1
2.088385463E0,-4.077405334E-1,2.737053871E0,-4.063661397E-1
2.093940463E0,-2.615953386E-1,2.650466204E0,-4.321744442E-1
2.099495463E0,-1.747023165E-1,2.557922840E0,-4.161396921E-1
2.105050463E0,-1.456870735E-1,2.419871330E0,-3.168770075E-1
2.110605463E0,-1.640124917E-1,2.262731075E0,-1.441599578E-1
2.116160463E0,-2.325800955E-1,2.242725611E0,1.374406274E-3
2.121715463E0,-3.208475113E-1,2.325953722E0,1.105633527E-1
2.127270463E0,-3.947600424E-1,2.462477922E0,2.040229887E-1
2.132825463E0,-4.735593498E-1,2.678717852E0,2.863346636E-1
2.138380463E0,-5.431959033E-1,2.891598225E0,3.486410677E-1
2.143935463E0,-5.783196688E-1,3.070729256E0,3.799470067E-1
2.149490463E0,-5.812211633E-1,3.247111320E0,3.674246371E-1
2.155045463E0,-5.428904891E-1,3.354467630E0,2.948864996E-1
2.160600463E0,-4.469874799E-1,3.366684675E0,1.840177327E-1
2.166155463E0,-3.341334462E-1,3.311708450E0,5.711421743E-2
2.171710463E0,-1.835595965E-1,3.180834293E0,-2.168507688E-2
2.177265463E0,-9.132166207E-2,2.987195730E0,-6.184828654E-2
2.182820463E0,-4.672981426E-2,2.698112249E0,-9.697200358E-2
2.188375463E0,5.314370990E-2,2.238296986E0,-1.137702987E-1
2.193930463E0,1.960819662E-1,1.746412277E0,-8.887827396E-2
2.199485463E0,3.182514310E-1,1.327371120E0,-4.123219103E-2
2.205040463E0,3.356605768E-1,1.121668339E0,5.497625098E-3
2.210595463E0,2.159345001E-1,1.056765795E0,2.764083818E-2
2.216150463E0,5.100574717E-2,1.024696231E0,2.672456764E-2
2.221705463E0,-8.689302206E-2,1.080283403E0,-3.970507067E-3
2.227260463E0,-1.719534993E-1,1.191457629E0,-8.002099395E-2
2.232815463E0,-2.084516287E-1,1.393495321E0,-1.582094431E-1
2.238370463E0,-2.139492482E-1,1.604848504E0,-2.466295809E-1
2.243925463E0,-1.725643575E-1,1.725185394E0,-3.761292100E-1
2.249480463E0,-9.697200358E-2,1.789171576E0,-5.094466209E-1
2.255035463E0,-2.367033064E-2,1.822615504E0,-6.149705052E-1
2.260590463E0,1.969982497E-2,1.803526521E0,-6.743753552E-1
2.266145463E0,4.275931045E-3,1.695406556E0,-6.792621613E-1
2.271700463E0,-3.665083647E-2,1.552926421E0,-6.684195995E-1
2.277255463E0,-8.368607610E-2,1.403574347E0,-6.464291215E-1
2.282810463E0,-1.273616552E-1,1.287818789E0,-6.155813336E-1
2.288365463E0,-1.808107942E-1,1.169161677E0,-5.864133835E-1
2.293920463E0,-2.745758295E-1,9.605573416E-1,-5.577035546E-1
2.299475463E0,-3.472666740E-1,8.034168482E-1,-5.508314967E-1
2.305030463E0,-3.385621011E-1,7.430956960E-1,-5.494571328E-1
2.310585463E0,-2.634278834E-1,7.227849960E-1,-5.347967744E-1
2.316140463E0,-1.678302884E-1,6.684195995E-1,-5.144860744E-1
2.321695463E0,-9.651386738E-2,5.460974574E-1,-4.857762754E-1
2.327250463E0,-2.993151546E-2,4.546230733E-1,-4.708105326E-1
2.332805463E0,6.413896382E-2,4.853181541E-1,-4.746283293E-1
2.338360463E0,1.542389393E-1,6.139014959E-1,-4.941754341E-1
2.343915463E0,1.777565479E-1,7.711946368E-1,-5.468609929E-1
2.349470463E0,1.240019947E-1,9.260444641E-1,-6.189410090E-1
2.355025463E0,5.115845799E-2,1.056765795E0,-6.905628443E-1
2.360580463E0,2.397575416E-2,1.185654521E0,-7.495095730E-1
2.366135463E0,5.497625470E-2,1.384485364E0,-7.886037827E-1
2.371690463E0,9.895725548E-2,1.622104883E0,-7.936432958E-1
2.377245463E0,1.302631795E-1,1.882784009E0,-7.829535007E-1
2.382800463E0,1.745496094E-1,2.217070103E0,-7.655443549E-1
2.388355463E0,2.483094037E-1,2.491035223E0,-7.385143638E-1
2.393910463E0,3.251234591E-1,2.688186169E0,-6.974348426E-1
2.399465463E0,3.837648034E-1,2.790808439E0,-6.539120078E-1
2.405020463E0,4.152234197E-1,2.849144220E0,-6.198572516E-1
2.410575463E0,4.132381678E-1,2.924889326E0,-5.929799676E-1
2.416130463E0,3.579564989E-1,2.875105381E0,-5.509842038E-1
2.421685463E0,3.691044450E-1,2.746980190E0,-4.984513521E-1
2.427240463E0,3.666610718E-1,2.791877508E0,-4.546230733E-1
2.432795463E0,3.706315756E-1,2.772941113E0,-4.610369802E-1
2.438350463E0,3.454341292E-1,2.746369362E0,-4.824166298E-1
2.443905463E0,3.520007432E-1,2.621603727E0,-5.152496696E-1
2.449460463E0,3.781144619E-1,2.561740637E0,-5.511369109E-1
2.455015463E0,4.239279926E-1,2.535474300E0,-6.073349118E-1
2.460570463E0,4.734066129E-1,2.612441063E0,-6.856760383E-1
2.466125463E0,5.083776116E-1,2.700555801E0,-8.170081973E-1
2.471680463E0,5.618267655E-1,2.815395117E0,-1.025765300E0
2.477235463E0,6.462764144E-1,3.052251101E0,-1.236202121E0
2.482790463E0,6.763606071E-1,3.473430157E0,-1.370588541E0
2.488345463E0,6.697940230E-1,3.908048153E0,-1.488940239E0
2.493900463E0,6.474980712E-1,4.339000702E0,-1.609124422E0
2.499455463E0,5.829010010E-1,4.680159092E0,-1.627144337E0
2.505010463E0,5.187620521E-1,4.953513145E0,-1.582857966E0
2.510565463E0,3.261924386E-1,5.096146107E0,-1.519024372E0
2.516120463E0,-1.298050396E-2,5.120732784E0,-1.428771734E0
2.521675463E0,-3.652866483E-1,5.140127182E0,-1.332410574E0
2.527230463E0,-6.533011198E-1,5.128368378E0,-1.263384819E0
2.532785463E0,-9.633061290E-1,4.898689747E0,-1.244906664E0
2.538340463E0,-1.343863964E0,4.237600327E0,-1.342947721E0
2.543895463E0,-1.486496806E0,3.562461138E0,-1.413653255E0
2.549450463E0,-1.341267824E0,2.922598600E0,-1.405712247E0
2.555005463E0,-1.074633002E0,2.192636251E0,-1.389066696E0
2.560560463E0,-7.930324674E-1,1.460993886E0,-1.386623263E0
2.566115463E0,-6.061131954E-1,9.426900148E-1,-1.378071427E0
2.571670463E0,-5.245651007E-1,6.331431866E-1,-1.305685997E0
2.577225463E0,-5.438067913E-1,5.983248949E-1,-1.223068953E0
2.582780463E0,-5.865660906E-1,7.976137996E-1,-1.130831003E0
2.588335463E0,-4.711159468E-1,7.930324674E-1,-1.024390817E0
2.593890463E0,-2.727433145E-1,7.898254991E-1,-9.025267959E-1
2.599445463E0,-9.819369763E-2,7.806627750E-1,-8.438854814E-1
2.605000463E0,4.245388508E-2,7.550072074E-1,-8.645015955E-1
2.610555463E0,1.062874198E-1,7.504258752E-1,-8.486195803E-1
2.616110463E0,1.244601309E-1,7.754706144E-1,-7.918107510E-1
2.621665463E0,2.066190839E-1,7.725690603E-1,-7.879929543E-1
2.627220463E0,3.793361485E-1,8.043331504E-1,-8.118160367E-1
2.632775463E0,5.435013771E-1,7.316423059E-1,-8.765658140E-1
2.638330463E0,6.207735538E-1,6.084038615E-1,-9.547542930E-1
2.643885463E0,6.826218367E-1,5.082249045E-1,-9.935430884E-1
2.649440463E0,7.331694365E-1,3.666610718E-1,-9.674293399E-1
2.654995463E0,7.319477201E-1,1.572931707E-1,-9.347490072E-1
2.660550463E0,6.914790869E-1,-6.872031838E-3,-9.177979827E-1
2.666105463E0,6.537593007E-1,-8.276980370E-2,-8.997780085E-1
2.671660463E0,6.442911625E-1,-1.154501289E-1,-8.739697337E-1
2.677215463E0,6.456655264E-1,-6.520794332E-2,-8.396095634E-1
2.682770463E0,6.374191046E-1,1.588202827E-2,-7.899782062E-1
2.688325463E0,5.801522136E-1,4.917320609E-2,-7.380561829E-1
2.693880463E0,4.847072959E-1,8.078455180E-2,-7.174401283E-1
2.699435463E0,3.834593594E-1,1.913478971E-1,-6.520794630E-1
2.704990463E0,3.101576865E-1,2.786990702E-1,-5.066977739E-1
2.710545463E0,2.748812735E-1,2.589992285E-1,-3.800997138E-1
2.716100463E0,2.357870489E-1,1.545443535E-1,-2.974826097E-1
2.721655463E0,1.853921413E-1,5.864133686E-2,-2.568612695E-1
2.727210463E0,1.336228400E-1,-1.527118147E-3,-2.318165302E-1
2.732765463E0,9.910997003E-2,4.062134400E-2,-3.321481943E-1
2.738320463E0,2.657185495E-2,5.497625470E-2,-3.903313875E-1
2.743875463E0,-5.543438718E-2,3.237490356E-2,-4.129327536E-1
2.749430463E0,-9.895725548E-2,1.588202827E-2,-4.668400288E-1
2.754985463E0,-1.243074164E-1,-3.710897267E-2,-5.267030597E-1
2.760540463E0,-1.491994411E-1,-7.406523079E-2,-5.890094638E-1
2.766095463E0,-1.514901221E-1,-8.276980370E-2,-6.533011198E-1
2.771650463E0,-1.626380831E-1,-1.041494608E-1,-7.084301114E-1
2.777205463E0,-1.876828223E-1,-2.014268786E-1,-7.244648337E-1
2.782760463E0,-2.594573796E-1,-2.261662036E-1,-6.959077120E-1
2.788315463E0,-3.342861533E-1,-1.754658818E-1,-6.691831946E-1
2.793870463E0,-3.109212518E-1,-1.776038408E-1,-6.503996253E-1
2.799425463E0,-3.365768492E-1,-1.863084137E-1,-6.151232123E-1
2.804980463E0,-3.280249834E-1,-2.516690791E-1,-5.314370990E-1
2.810535463E0,-2.357870489E-1,-3.533751369E-1,-4.446968138E-1
2.816090463E0,-2.101314515E-1,-3.550549746E-1,-4.095730782E-1
2.821645463E0,-2.017323077E-1,-3.161134422E-1,-4.042281806E-1
2.827200463E0,-1.756185889E-1,-2.483094037E-1,-4.106420577E-1
2.832755463E0,-1.637070626E-1,-1.701209545E-1,-4.256078303E-1
2.838310463E0,-1.412584335E-1,-5.375456065E-2,-4.892886579E-1
2.843865463E0,-1.282779276E-1,-2.489202656E-2,-5.150969625E-1
2.849420463E0,-1.372879148E-1,-2.947338112E-2,-5.057815313E-1
2.854975463E0,-1.140757278E-1,-4.947862774E-2,-4.727957845E-1
2.860530463E0,-9.284878522E-2,-8.918370306E-2,-4.401154518E-1
2.866085463E0,-1.059819981E-1,-1.229330078E-1,-4.103366435E-1
2.871640463E0,-1.423274130E-1,-1.644706279E-1,-3.765873313E-1
2.877195463E0,-1.737860441E-1,-1.858502775E-1,-3.539859951E-1
2.882750463E0,-2.159345001E-1,-2.009687424E-1,-3.347443044E-1
2.888305463E0,-2.782409191E-1,-2.405211031E-1,-3.008422852E-1
2.893860463E0,-3.211529553E-1,-2.799207568E-1,-2.403683960E-1
2.899415463E0,-3.727695346E-1,-3.136700690E-1,-1.698155403E-1
2.904970463E0,-4.191939235E-1,-3.182514310E-1,-1.122431830E-1
2.910525463E0,-4.566083252E-1,-3.323009014E-1,-8.017370105E-2
2.916080463E0,-4.680617154E-1,-3.416163325E-1,-4.474456236E-2
2.921635463E0,-4.747810364E-1,-3.576510847E-1,-6.276455522E-2
2.927190463E0,-4.815003574E-1,-3.771981895E-1,-8.933641016E-2
2.932745463E0,-4.576773047E-1,-4.314108789E-1,-8.612946421E-2
2.938300463E0,-3.990359604E-1,-5.238015056E-1,-7.910472155E-2
2.943855463E0,-3.147390485E-1,-6.227588058E-1,-5.741964281E-2
2.949410463E0,-2.312056869E-1,-6.429167390E-1,-2.519745007E-2
2.954965463E0,-1.475196183E-1,-6.215370893E-1,-2.031067200E-2
2.960520463E0,-8.261708915E-2,-5.829010010E-1,-4.749337584E-2
2.966075463E0,-4.718795046E-2,-5.306735635E-1,-7.467607409E-2
2.971630463E0,-4.672981426E-2,-3.996468186E-1,-1.197260618E-1
2.977185463E0,-6.719319522E-2,-2.544178963E-1,-1.688992679E-1
2.982740463E0,-1.105633527E-1,-9.254335612E-2,-2.075353563E-1
2.988295463E0,-1.548497826E-1,5.741964281E-2,-2.383831441E-1
2.993850463E0,-1.780619770E-1,1.973036677E-1,-2.470877171E-1
2.999405463E0,-2.203631550E-1,3.106158376E-1,-2.267770469E-1
3.004960463E0,-2.318165302E-1,3.955236077E-1,-2.383831441E-1
3.010515463E0,-2.195995897E-1,5.260922313E-1,-2.793098986E-1
3.016070463E0,-2.405211031E-1,6.177192926E-1,-2.867927849E-1
3.021625463E0,-2.870981991E-1,6.592568755E-1,-2.765611112E-1
3.027180463E0,-3.399364948E-1,6.010736823E-1,-2.370087355E-1
3.032735463E0,-3.629959822E-1,4.895940721E-1,-1.710372269E-1
3.038291345E0,-3.746020794E-1,3.009949923E-1,-9.468132257E-2
3.043846137E0,-3.665083647E-1,1.902789176E-1,-1.374406274E-3
3.049401137E0,-3.382566571E-1,2.585411072E-1,9.681928903E-2
3.054956137E0,-3.258870244E-1,4.297310412E-1,1.618745178E-1
3.060511137E0,-3.271087110E-1,4.654656053E-1,1.035386100E-1
3.066066137E0,-2.023431510E-1,1.826433241E-1,-2.397575527E-1
3.071621137E0,-2.351761982E-2,-5.344913527E-2,-6.447492838E-1
3.077176137E0,9.620844573E-2,-3.649812192E-2,-8.345700502E-1
3.082731137E0,1.252236813E-1,-7.269082218E-2,-9.126058221E-1
3.088286137E0,4.627167806E-2,-2.298312783E-1,-9.732323885E-1
3.093841137E0,-7.024743408E-2,-3.526115716E-1,-1.023321867E0
3.099396137E0,-2.026485801E-1,-4.650074840E-1,-1.034164429E0
3.104951137E0,-3.744493723E-1,-6.117635369E-1,-1.040120125E0
3.110506137E0,-5.389199853E-1,-7.420266867E-1,-1.054780483E0
3.116061137E0,-7.855495811E-1,-9.231429100E-1,-1.065928459E0
3.121616137E0,-1.188403368E0,-1.050504565E0,-1.043937922E0
3.127171137E0,-1.564074397E0,-8.970292211E-1,-1.007592559E0
3.132726137E0,-1.885380030E0,-5.453338623E-1,-9.712471366E-1
3.138281137E0,-2.161941051E0,-8.383878320E-2,-9.032903910E-1
3.143836137E0,-2.367644072E0,3.272614181E-1,-8.165500760E-1
3.149391137E0,-2.498517990E0,7.404996157E-1,-7.253811359E-1
3.154946137E0,-2.596864462E0,1.152821541E0,-6.339067221E-1
3.160501137E0,-2.665431976E0,1.426633716E0,-5.590779781E-1
3.166056137E0,-2.698570490E0,1.571557283E0,-4.799732268E-1
3.171611137E0,-2.684979200E0,1.684258580E0,-3.851391971E-1
3.177166137E0,-2.647870064E0,1.826433301E0,-2.664821148E-1
3.182721137E0,-2.613662720E0,1.991514802E0,-1.320957243E-1
3.188276137E0,-2.581593275E0,2.110935450E0,3.359660041E-3
3.193831137E0,-2.549065590E0,2.105437756E0,1.475196183E-1
3.199386137E0,-2.510276794E0,1.856059432E0,2.968717813E-1
3.204941137E0,-2.420482159E0,1.298966646E0,4.495835900E-1
3.210496137E0,-2.242878437E0,5.737382770E-1,6.016845703E-1
3.216051137E0,-2.002051830E0,1.908897609E-2,7.531746626E-1
3.221606137E0,-1.743816257E0,-2.203631550E-1,8.979454637E-1
3.227161137E0,-1.483137131E0,-2.484621257E-1,1.023474574E0
3.232716137E0,-1.244448543E0,-2.165453583E-1,1.123348117E0
3.238271137E0,-1.045465112E0,-1.240019947E-1,1.195275426E0
3.243826137E0,-8.739697337E-1,-1.359135192E-2,1.234675050E0
3.249381137E0,-7.313368917E-1,8.307522535E-2,1.242768764E0
3.254936137E0,-6.077930331E-1,1.398840249E-1,1.220472813E0
3.260491137E0,-5.056288242E-1,1.354553849E-1,1.174659252E0
3.266046137E0,-4.275930822E-1,9.834641218E-2,1.100441337E0
3.271601137E0,-3.633013964E-1,6.688777357E-2,1.001942158E0
3.277156137E0,-3.067980409E-1,4.764608666E-2,8.997780085E-1
3.282711137E0,-2.502946556E-1,3.222219273E-2,8.063184023E-1
3.288266137E0,-1.889045089E-1,-1.084253844E-2,7.137750387E-1
3.293821137E0,-1.157555580E-1,-6.093201414E-2,6.123743653E-1
3.299376137E0,-4.779879749E-2,-1.023169160E-1,5.144860744E-1
3.304931137E0,3.359660041E-3,-1.351499557E-1,4.124746025E-1
3.310486137E0,4.199574888E-2,-1.562241912E-1,3.080197275E-1
3.316041137E0,7.207997888E-2,-1.618745178E-1,2.031067163E-1
3.321596137E0,9.513945878E-2,-1.620272398E-1,1.038440317E-1
3.327151137E0,1.091889441E-1,-1.498102844E-1,1.572931744E-2
3.332706137E0,1.140757278E-1,-1.360662282E-1,-5.726693198E-2
3.338261137E0,1.059819981E-1,-1.412584335E-1,-1.148392856E-1
3.343816137E0,8.200624585E-2,-1.817270666E-1,-1.646233350E-1
3.349371137E0,5.680879578E-2,-2.382304370E-1,-1.985253543E-1
3.354926137E0,3.130592033E-2,-2.817533016E-1,-2.136438340E-1
3.360481137E0,9.773556143E-3,-3.026748300E-1,-2.165453583E-1
3.366036137E0,-8.857285604E-3,-3.054236174E-1,-2.179197669E-1
3.371591137E0,-3.436015919E-2,-3.274141252E-1,-2.269297540E-1
3.377146137E0,-6.872031838E-2,-3.814741075E-1,-2.386885732E-1
3.382701137E0,-1.123958975E-1,-4.428642690E-1,-2.597627938E-1
3.388256137E0,-1.490467340E-1,-4.952444136E-1,-2.724378705E-1
3.393811137E0,-1.652341783E-1,-5.091412067E-1,-2.516690791E-1
3.399366137E0,-1.605001241E-1,-4.775298536E-1,-2.067717910E-1
3.404921137E0,-1.521009654E-1,-4.376720488E-1,-1.666085869E-1
3.410476137E0,-1.759240031E-1,-4.876088202E-1,-1.467560530E-1
3.416031137E0,-2.177670449E-1,-6.099309921E-1,-1.195733473E-1
3.421586137E0,-2.541124523E-1,-7.087355256E-1,-6.902574003E-2
3.427141137E0,-3.040492237E-1,-7.941014171E-1,-7.482878864E-3
3.432696137E0,-3.558185399E-1,-8.568660021E-1,6.047387794E-2
3.438251137E0,-4.056025743E-1,-9.051229358E-1,1.360662282E-1
3.443806137E0,-4.566083252E-1,-9.436063170E-1,2.154763639E-1
3.449361137E0,-4.999784827E-1,-9.686510563E-1,3.067980409E-1
3.454916137E0,-5.164713860E-1,-8.864920735E-1,4.210264683E-1
3.460471137E0,-5.005893111E-1,-6.928535104E-1,5.477772951E-1
3.466026137E0,-4.772244096E-1,-4.685198367E-1,6.569662094E-1
3.471581137E0,-4.793623984E-1,-3.037438095E-1,7.496622801E-1
3.477136137E0,-5.131117105E-1,-2.035648525E-1,8.292251825E-1
3.482691137E0,-5.868715048E-1,-1.617218107E-1,9.000834227E-1
3.488246137E0,-6.696413159E-1,-1.227803007E-1,9.483403563E-1
3.493801137E0,-7.149966955E-1,-4.947862774E-2,9.672766328E-1
3.499356137E0,-7.159129977E-1,3.038965166E-2,9.764393568E-1
3.504911137E0,-6.569662094E-1,1.165191159E-1,9.827005267E-1
3.510466137E0,-5.486935377E-1,2.024958730E-1,9.756757617E-1
3.516021137E0,-4.188885093E-1,2.867927849E-1,9.332218766E-1
3.521576137E0,-3.035911024E-1,3.521534503E-1,8.544226289E-1
3.527131137E0,-2.223484069E-1,4.344651103E-1,7.713474035E-1
3.532686137E0,-1.575985998E-1,5.335750580E-1,6.595623493E-1
3.538241137E0,-8.170082420E-2,6.079457402E-1,4.869979918E-1
3.543796137E0,4.581354558E-3,5.955760479E-1,2.632751763E-1
3.549351137E0,8.674030751E-2,5.097520351E-1,3.802524135E-2
3.554906137E0,1.517955512E-1,3.486410677E-1,-1.348445266E-1
3.560461137E0,2.046338320E-1,1.102579311E-1,-2.376195788E-1
3.566016137E0,2.426590770E-1,-8.872556686E-2,-2.712161839E-1
3.571571137E0,2.669402659E-1,-1.997470558E-1,-2.596100867E-1
3.577126137E0,2.709107697E-1,-2.295258641E-1,-2.238755226E-1
3.582681137E0,2.527380586E-1,-2.031067163E-1,-1.644706279E-1
3.588236137E0,2.159345001E-1,-1.252236813E-1,-9.009996802E-2
3.593791137E0,1.676775664E-1,-4.856235534E-2,-1.175880991E-2
3.599346137E0,1.105633527E-1,3.054236295E-3,6.551336497E-2
3.604901137E0,5.635065958E-2,5.940489471E-2,1.314848661E-1
3.610456137E0,2.687728032E-2,1.569877416E-1,1.777565479E-1
3.616011137E0,3.084778599E-2,2.799207568E-1,1.988307834E-1
3.621566137E0,6.306997687E-2,3.849864900E-1,1.905843467E-1
3.627121137E0,9.972081333E-2,4.364503622E-1,1.716480851E-1
3.632676137E0,1.226275861E-1,4.304946065E-1,1.343863904E-1
3.638231137E0,1.366770715E-1,3.729222417E-1,8.338065445E-2
3.643786137E0,1.424801201E-1,2.625116110E-1,3.436015919E-2
3.649341137E0,1.438545287E-1,1.299577504E-1,2.748812549E-3
3.654896137E0,1.449235082E-1,2.687728032E-2,-5.192201585E-3
3.660451137E0,1.514901221E-1,-3.894151375E-2,2.596100792E-3
3.666006137E0,1.579040140E-1,-7.467607409E-2,2.550287358E-2
3.671561137E0,1.533226669E-1,-1.015533581E-1,5.864133686E-2
3.677116137E0,1.365243644E-1,-1.369825006E-1,1.000262350E-1
3.682671137E0,1.181989461E-1,-1.435490996E-1,1.423274130E-1
3.688226137E0,1.046075895E-1,-1.278197914E-1,1.814216375E-1
3.693781137E0,9.452861547E-2,-9.849911928E-2,2.047865391E-1
3.699336137E0,8.979454637E-2,-4.871506989E-2,2.134911120E-1
3.704891137E0,8.964183182E-2,1.084253844E-2,2.142546773E-1
3.710446137E0,9.468132257E-2,5.436540768E-2,1.976090819E-1
3.716001137E0,1.007898003E-1,7.757759839E-2,1.685938388E-1
3.721556137E0,1.039967462E-1,7.391251624E-2,1.351499557E-1
3.727111137E0,1.181989461E-1,7.635590434E-2,1.088835225E-1
3.732666137E0,1.525591016E-1,9.605573118E-2,8.582404256E-2
3.738221137E0,1.963873953E-1,1.108687744E-1,7.879929990E-2
3.743776137E0,2.499892414E-1,1.337755471E-1,9.025268257E-2
3.749331137E0,3.179459870E-1,1.896680743E-1,1.262926757E-1
3.754886137E0,3.304683566E-1,1.553079188E-1,1.638597846E-1
3.760441137E0,2.762556672E-1,-2.535016090E-2,1.915006191E-1
3.765996137E0,2.310529798E-1,-1.945548505E-1,2.312056869E-1
3.771551137E0,2.128802687E-1,-2.786990702E-1,2.735068500E-1
3.777106137E0,1.924168915E-1,-3.588727713E-1,3.106158376E-1
3.782661137E0,1.727170646E-1,-4.286620617E-1,3.469612300E-1
3.788216137E0,1.346918195E-1,-4.312581718E-1,3.747547865E-1
3.793771137E0,3.848337755E-2,-4.233171642E-1,3.883461356E-1
3.799326137E0,-5.650337040E-2,-4.167505503E-1,3.909422457E-1
3.804881137E0,-8.093725890E-2,-3.796415627E-1,3.900259733E-1
3.810436137E0,-4.489727318E-2,-3.480302393E-1,3.874298632E-1
3.815991137E0,7.941014133E-3,-3.652866483E-1,3.759764731E-1
3.821546137E0,5.192201585E-2,-4.373666346E-1,3.689517379E-1
3.827101137E0,7.971556485E-2,-5.370874405E-1,3.643703759E-1
3.832656137E0,1.119377613E-1,-6.122216582E-1,3.407000601E-1
3.838211137E0,1.626380831E-1,-6.190937161E-1,2.906105816E-1
3.843766137E0,2.279987335E-1,-5.573981404E-1,2.188360244E-1
3.849321137E0,2.811424434E-1,-4.686725736E-1,1.294996142E-1
3.854876137E0,3.008422852E-1,-3.912476599E-1,3.848337755E-2
3.860431137E0,2.907632887E-1,-3.202366829E-1,-4.474456236E-2
3.865986137E0,2.820587158E-1,-2.522799075E-1,-1.171299592E-1
3.871541137E0,2.929012477E-1,-1.491994411E-1,-1.667613089E-1
3.877096137E0,3.295520842E-1,-9.315420873E-3,-1.924168915E-1
3.882651137E0,3.923166394E-1,1.421747059E-1,-1.847812980E-1
3.888206137E0,4.669927359E-1,3.052709103E-1,-1.852394342E-1
3.893761137E0,5.289937258E-1,4.666872919E-1,-1.879882365E-1
3.899316137E0,5.745018721E-1,6.352811456E-1,-1.725643575E-1
3.904871137E0,5.848862529E-1,7.380561829E-1,-1.618745178E-1
3.910426137E0,5.748072863E-1,7.678350210E-1,-1.487413049E-1
3.915981137E0,5.297572613E-1,6.992673874E-1,-1.496575773E-1
3.921536137E0,4.530959427E-1,5.607577562E-1,-1.583621502E-1
3.927091137E0,3.802524209E-1,4.030064642E-1,-1.843231618E-1
3.932646137E0,3.188622594E-1,2.568612695E-1,-2.391466945E-1
3.938201137E0,2.767138183E-1,1.278197914E-1,-2.993151546E-1
3.943756137E0,2.672456801E-1,2.199050039E-2,-3.585673273E-1
3.949311137E0,2.727433145E-1,-5.360184610E-2,-4.085040987E-1
3.954866137E0,2.861819267E-1,-7.269082218E-2,-4.457657933E-1
3.960421137E0,3.000787199E-1,-1.435491070E-2,-4.724903405E-1
3.965976137E0,2.907632887E-1,1.288887709E-1,-4.327852726E-1
3.971531137E0,2.246390730E-1,3.214583695E-1,-3.135173619E-1
3.977086137E0,9.849911928E-2,4.427115619E-1,-1.695101112E-1
3.982641137E0,-4.840964451E-2,4.763081372E-1,-1.009425074E-1
3.988196137E0,-1.722589284E-1,4.671454430E-1,-1.400367320E-1
3.993751137E0,-2.742704153E-1,4.317162931E-1,-1.951656938E-1
3.999306137E0,-3.874298632E-1,3.718532622E-1,-2.223484069E-1
4.004861137E0,-5.057815313E-1,3.006895781E-1,-2.217375487E-1
4.010416137E0,-6.082511544E-1,2.020377368E-1,-2.237228155E-1
4.015971137E0,-6.131379604E-1,1.007898003E-1,-2.324273884E-1
4.021526137E0,-4.627167881E-1,4.337015375E-2,-2.392994165E-1
4.027081137E0,-2.252499312E-1,6.383354217E-2,-2.744231224E-1
4.032636137E0,4.046862945E-2,4.123219103E-2,-3.730749488E-1
4.038191137E0,2.657185495E-1,-6.795676053E-2,-5.158604980E-1
4.043746137E0,4.280512035E-1,-2.081461996E-1,-6.485670805E-1
4.049301137E0,5.338805318E-1,-3.541387022E-1,-7.547017932E-1
4.054856137E0,6.163448691E-1,-5.062396526E-1,-8.448017836E-1
4.060411137E0,7.139277458E-1,-6.051968932E-1,-9.378032684E-1
4.065966137E0,8.312104344E-1,-6.097782850E-1,-1.031873703E0
4.071521137E0,9.417737722E-1,-5.809157491E-1,-1.108535051E0
4.077076137E0,1.025307178E0,-4.706578255E-1,-1.114796281E0
4.082631137E0,1.112352848E0,-2.446443290E-1,-1.046228647E0
4.088186137E0,1.200467587E0,5.436540768E-2,-9.043593407E-1
4.093741137E0,1.242005229E0,2.990097404E-1,-7.185090780E-1
4.099296137E0,1.242616057E0,4.459185004E-1,-5.427377820E-1
4.104851137E0,1.219403863E0,5.016583204E-1,-3.914003670E-1
4.110406137E0,1.184585571E0,5.033381581E-1,-2.499892414E-1
4.115961137E0,1.153279662E0,4.960079789E-1,-1.091889441E-1
4.121516137E0,1.112047434E0,5.326588154E-1,3.558185324E-2
4.127071137E0,1.051726222E0,6.334486008E-1,1.740914732E-1
4.132626137E0,9.715525508E-1,7.337802649E-1,2.924431264E-1
4.138181137E0,8.779402375E-1,7.742488980E-1,3.912476599E-1
4.143736137E0,8.290724158E-1,7.456917763E-1,4.059080184E-1
4.149291137E0,1.166260123E0,6.450546980E-1,3.497100621E-2
4.154846137E0,1.402810693E0,5.441122055E-1,-2.745758295E-1
4.160401137E0,1.323858738E0,4.275930822E-1,-2.832804024E-1
4.165956137E0,1.204285383E0,3.176405728E-1,-2.130329758E-1
4.171511137E0,1.085933685E0,2.127275616E-1,-1.446180940E-1
4.177066137E0,9.654440880E-1,1.408002973E-1,-9.254335612E-2
4.182621137E0,8.119687438E-1,1.133121699E-1,-8.307522535E-2
4.188176137E0,6.688777208E-1,9.086353332E-2,-9.025268257E-2
4.193731137E0,5.609105229E-1,9.208522737E-2,-8.124268800E-2
4.199286137E0,4.607315361E-1,1.070509851E-1,-5.894676223E-2
4.204841137E0,3.500154912E-1,9.926267713E-2,-5.054761097E-2
4.210396137E0,2.451024652E-1,5.955760926E-2,-8.964183182E-2
4.215951137E0,1.623326540E-1,3.680354729E-2,-1.372879148E-1
4.221506137E0,1.400367320E-1,4.871506989E-2,-1.609582454E-1
4.227061137E0,2.121167034E-1,1.087308154E-1,-1.424801201E-1
4.232616137E0,3.246653080E-1,1.672194302E-1,-1.018587798E-1
4.238171137E0,4.144598544E-1,1.537808031E-1,-8.780929446E-2
4.243726137E0,4.807367921E-1,5.925218388E-2,-9.162709117E-2
4.249281137E0,5.442649126E-1,-3.894151375E-2,-1.140757278E-1
4.254836137E0,6.010736823E-1,-1.423274130E-1,-1.241547018E-1
4.260391137E0,6.566607952E-1,-2.415900975E-1,-1.305686086E-1
4.265946137E0,7.128587365E-1,-3.374931216E-1,-1.476723254E-1
4.271501137E0,7.638645172E-1,-4.454603493E-1,-1.721062213E-1
4.277056137E0,7.999044657E-1,-5.438067913E-1,-1.983726472E-1
4.282611137E0,8.258655071E-1,-6.339067221E-1,-2.292204350E-1
4.288166137E0,8.506048322E-1,-7.078192830E-1,-2.677038014E-1
4.293721137E0,8.623636365E-1,-7.395833135E-1,-2.976353168E-1
4.299276137E0,8.660287261E-1,-7.424848676E-1,-3.187095523E-1
4.304831137E0,8.637380004E-1,-7.441646457E-1,-3.377985358E-1
4.310386137E0,8.638907075E-1,-7.200362086E-1,-3.652866483E-1
4.315941137E0,8.699992299E-1,-6.791094542E-1,-3.900259733E-1
4.321496137E0,8.692356348E-1,-6.401679516E-1,-4.253024161E-1
4.327051137E0,8.472451568E-1,-6.358919740E-1,-4.549284875E-1
4.332606137E0,8.179244995E-1,-6.157340407E-1,-4.764608741E-1
4.338161137E0,7.846332788E-1,-5.818319917E-1,-5.037962794E-1
4.343716137E0,7.498149872E-1,-5.160132051E-1,-5.402944088E-1
4.349271137E0,7.308787704E-1,-4.013266563E-1,-5.326588154E-1
4.354826137E0,7.386670709E-1,-2.913741469E-1,-4.886777997E-1
4.360381137E0,7.669187188E-1,-1.887518018E-1,-4.190412164E-1
4.365936137E0,8.041804433E-1,-1.166718230E-1,-3.420744538E-1
4.371491137E0,8.502993584E-1,-1.264453828E-1,-2.542651594E-1
4.377046137E0,9.077190161E-1,-1.395785958E-1,-1.606528312E-1
4.382601137E0,9.715525508E-1,-1.843231618E-1,-7.528692484E-2
4.388156137E0,1.012479305E0,-2.845021188E-1,-7.788302377E-3
4.393711137E0,1.042105436E0,-3.300102353E-1,7.498150319E-2
4.399266137E0,1.069746256E0,-3.319954872E-1,1.608055383E-1
4.404821137E0,1.094180107E0,-2.930539846E-1,2.403683960E-1
4.410376137E0,1.112505555E0,-2.483094037E-1,3.153499067E-1
4.415931137E0,1.116476059E0,-1.965401024E-1,4.042281806E-1
4.421486137E0,1.114643574E0,-2.076880634E-1,4.882196784E-1
4.427041137E0,1.106855273E0,-3.028275371E-1,5.561764240E-1
4.432596137E0,1.060736299E0,-5.129590034E-1,5.934380889E-1
4.438151137E0,9.640696645E-1,-8.127322793E-1,5.928272605E-1
4.443706137E0,8.434273601E-1,-1.098303318E0,5.577035546E-1
4.449261137E0,7.867712975E-1,-1.181378603E0,4.993676245E-1
4.454816137E0,8.958075047E-1,-8.819107413E-1,4.278984964E-1
4.460371137E0,1.123806238E0,-2.272351831E-1,3.182514310E-1
4.465926137E0,1.288124204E0,4.092676640E-1,2.023431510E-1
4.471481137E0,1.301868200E0,7.695148587E-1,7.543963939E-2
4.477036137E0,1.183058381E0,9.772028923E-1,-6.200099736E-2
4.482591137E0,1.043479800E0,1.142895222E0,-1.821851879E-1
4.488146137E0,9.265025854E-1,1.193900943E0,-3.032856584E-1
4.493701137E0,7.611156702E-1,1.037676811E0,-3.524588645E-1
4.499256137E0,6.021426916E-1,7.802046537E-1,-2.808370292E-1
4.504811137E0,5.489989519E-1,6.368082762E-1,-2.166980654E-1
4.510366137E0,5.975613594E-1,6.361974478E-1,-2.339545041E-1
4.515921137E0,6.907155514E-1,5.971031785E-1,-2.886253297E-1
4.521476137E0,7.817317843E-1,5.033381581E-1,-3.755183518E-1
4.527031137E0,8.987090588E-1,4.277457893E-1,-4.685198367E-1
4.532586137E0,1.049282908E0,4.091149569E-1,-5.066977739E-1
4.538141137E0,1.265522838E0,4.915793240E-1,-5.123481154E-1
4.543696137E0,1.537655234E0,4.845545888E-1,-5.195255876E-1
4.549251137E0,1.786270142E0,3.283303976E-1,-5.816792846E-1
4.554806137E0,1.969829679E0,1.262926757E-1,-6.893411279E-1
4.560361137E0,2.047101974E0,-1.301104724E-1,-8.318212628E-1
4.565916137E0,1.981893897E0,-4.350759685E-1,-9.828532338E-1
4.571471137E0,1.806580782E0,-7.971556783E-1,-1.108840466E0
4.577026137E0,1.548192382E0,-1.143353343E0,-1.190693974E0
4.582581137E0,1.202452779E0,-1.418081880E0,-1.277892470E0
4.588136137E0,8.066238165E-1,-1.602099657E0,-1.390899181E0
4.593691137E0,3.497100472E-1,-1.799097896E0,-1.506043911E0
4.599246137E0,-1.139230132E-1,-2.084668875E0,-1.564227104E0
4.604801137E0,-4.618005157E-1,-2.410250664E0,-1.657839417E0
4.610356137E0,-6.911736727E-1,-2.665279388E0,-1.764890432E0
4.615911137E0,-7.953231335E-1,-2.661156178E0,-1.839719176E0
4.621466137E0,-7.921161652E-1,-2.246237993E0,-1.871025205E0
4.627021137E0,-7.931851745E-1,-1.811162114E0,-1.765959382E0
4.632576137E0,-7.427902818E-1,-1.761530757E0,-1.564532518E0
4.638131137E0,-6.699467301E-1,-1.879271626E0,-1.411515355E0
4.643686137E0,-5.775560737E-1,-1.931804419E0,-1.281862974E0
4.649241137E0,-4.657710493E-1,-1.760309100E0,-1.206881523E0
4.654796137E0,-4.434750974E-1,-1.370588541E0,-1.073869467E0
4.660351137E0,-5.100574493E-1,-1.027750492E0,-9.648332596E-1
4.665906137E0,-5.948125124E-1,-8.675557971E-1,-9.700254202E-1
4.671461137E0,-6.444438696E-1,-8.382351398E-1,-9.993461370E-1
4.677016137E0,-6.247440577E-1,-8.240329623E-1,-1.007897973E0
4.682571137E0,-5.415160656E-1,-8.463288546E-1,-9.240592122E-1
4.688126137E0,-4.454603493E-1,-9.155073166E-1,-7.991409302E-1
4.693681137E0,-3.666610718E-1,-9.759812355E-1,-6.771242023E-1
4.699236137E0,-3.002314270E-1,-9.547542930E-1,-5.780141950E-1
4.704791137E0,-2.677038014E-1,-8.875610828E-1,-5.459447503E-1
4.710346137E0,-2.805316150E-1,-8.904625773E-1,-5.198310018E-1
4.715901137E0,-2.663294077E-1,-9.726215601E-1,-5.054761171E-1
4.721456137E0,-1.960819662E-1,-1.019962192E0,-5.068505406E-1
4.727011137E0,-1.290414780E-1,-1.021489382E0,-4.947862923E-1
4.732566137E0,-9.956810623E-2,-1.005607247E0,-4.628695250E-1
4.738121137E0,-1.114796251E-1,-9.927794933E-1,-3.988832533E-1
4.743676137E0,-1.511846930E-1,-9.764393568E-1,-3.199312389E-1
4.749231137E0,-1.785201132E-1,-9.587247968E-1,-2.785463631E-1
4.754786137E0,-1.704263836E-1,-9.213103652E-1,-2.945810854E-1
4.760341137E0,-1.449235082E-1,-9.005415440E-1,-3.500154912E-1
4.765896137E0,-1.152974218E-1,-8.699992299E-1,-4.475983381E-1
4.771451137E0,-8.780929446E-2,-8.247964978E-1,-6.085565686E-1
4.777006137E0,-6.933116168E-2,-7.585195899E-1,-8.067765236E-1
4.782561137E0,-9.987352788E-2,-7.027797699E-1,-1.008356094E0
4.788116137E0,-1.884463727E-1,-5.974085927E-1,-1.194969893E0
4.793671137E0,-2.770192325E-1,-4.479037523E-1,-1.344016671E0
4.799226137E0,-2.667875290E-1,-4.175141156E-1,-1.500546336E0
4.804781137E0,-1.505738497E-1,-5.361711979E-1,-1.617370844E0
4.810336137E0,-1.450762246E-2,-7.214106321E-1,-1.667613029E0
4.815891137E0,9.391776472E-2,-8.344173431E-1,-1.696780920E0
4.821446137E0,1.614163816E-1,-8.916842937E-1,-1.729003191E0
4.827001137E0,1.896680743E-1,-9.083298445E-1,-1.810245872E0
4.832556137E0,1.794363856E-1,-9.019159675E-1,-1.895764470E0
4.838111137E0,1.420219839E-1,-8.719844818E-1,-1.899429560E0
4.843666137E0,9.452861547E-2,-8.365553021E-1,-1.867207408E0
4.849221137E0,1.985253580E-2,-7.861604095E-1,-1.848271132E0
4.854776137E0,-8.551861346E-2,-6.180247068E-1,-1.870108843E0
4.860331137E0,-2.748812735E-1,-2.759502530E-1,-1.903705478E0
4.865886137E0,-4.556920528E-1,4.169032723E-2,-2.042978764E0
4.871441137E0,-5.795413256E-1,2.490729690E-1,-2.256317139E0
4.876996137E0,-6.343649030E-1,2.339545041E-1,-2.499128819E0
4.882551137E0,-6.607840061E-1,-1.450762246E-2,-2.775231838E0
4.888106137E0,-6.940752268E-1,-4.011739492E-1,-3.021097898E0
4.893661137E0,-6.410841942E-1,-9.767447710E-1,-3.146626949E0
4.899216137E0,-5.314370990E-1,-1.564685225E0,-3.119749546E0
4.904771137E0,-4.628695250E-1,-1.895459056E0,-3.000176430E0
4.910326137E0,-3.171824515E-1,-1.930124640E0,-2.945352793E0
4.915881137E0,-1.235438585E-1,-1.720451355E0,-2.956653357E0
4.921436137E0,3.649812192E-2,-1.307824016E0,-2.840286970E0
4.926991137E0,1.110214889E-1,-8.177717924E-1,-2.670318842E0
4.932546137E0,3.252761811E-2,-2.733541429E-1,-2.496990919E0
4.938101137E0,-2.953446507E-1,3.900259733E-1,-2.350234747E0
4.943656137E0,-1.058292866E0,1.254985690E0,-2.256164312E0
4.949211137E0,-1.932720780E0,2.171409369E0,-2.237075329E0
4.954766137E0,-2.604041815E0,2.898775578E0,-2.270213842E0
4.960321137E0,-3.087222099E0,3.365463018E0,-2.311751366E0
4.965876137E0,-3.400281191E0,3.599264860E0,-2.326869965E0
4.971431137E0,-3.593003511E0,3.643551111E0,-2.304879427E0
4.976986137E0,-3.700970888E0,3.583688259E0,-2.249139547E0
4.982541137E0,-3.721892357E0,3.577732325E0,-2.159192324E0
4.988096137E0,-3.705704927E0,3.628890753E0,-2.045727491E0
4.993651137E0,-3.674093485E0,3.708911896E0,-1.942341566E0
4.999206137E0,-3.586589575E0,3.845436096E0,-1.857433796E0
5.004761137E0,-3.383024931E0,3.983487606E0,-1.760003686E0
5.010316137E0,-2.959249496E0,3.975852013E0,-1.609124422E0
5.015871137E0,-2.450108290E0,3.863761663E0,-1.455343604E0
5.021426137E0,-1.921725512E0,3.715936661E0,-1.331341624E0
5.026981137E0,-1.399451017E0,3.480913162E0,-1.238340139E0
5.032536137E0,-9.373451471E-1,3.118986130E0,-1.122126460E0
5.038091137E0,-5.109737515E-1,2.724684238E0,-8.942803741E-1
5.043646137E0,-1.374406368E-1,2.269144773E0,-5.564818382E-1
5.049201137E0,1.359135211E-1,1.664253354E0,-1.299577504E-1
5.054756137E0,3.295520842E-1,9.681929350E-1,3.987305462E-1
5.060311137E0,5.381564498E-1,3.521534503E-1,9.949174523E-1
5.065866137E0,8.396095634E-1,-1.572931744E-2,1.605764747E0
5.071421137E0,1.048061132E0,-3.490992188E-1,2.019461155E0
5.076976137E0,1.067608237E0,-6.781931520E-1,2.092304468E0
5.082531137E0,9.970554113E-1,-9.495620728E-1,1.852241635E0
5.088086137E0,8.903098702E-1,-1.161220670E0,1.411668062E0
5.093641137E0,7.543963790E-1,-1.299577594E0,8.835905790E-1
5.099196137E0,6.001574397E-1,-1.329203606E0,3.607053161E-1
5.104751137E0,4.506525695E-1,-1.225664973E0,-8.704573661E-2
5.110306137E0,3.229855001E-1,-1.028972149E0,-3.988832533E-1
5.115861137E0,2.229592502E-1,-7.989882231E-1,-5.647283196E-1
5.121416137E0,1.415638477E-1,-5.841227174E-1,-6.140542030E-1
5.126971137E0,7.360709459E-2,-4.169032574E-1,-5.679352283E-1
5.132526137E0,2.076880634E-2,-2.994678617E-1,-4.727957845E-1
5.138081137E0,-2.993151546E-2,-2.382304370E-1,-3.681881726E-1
5.143636137E0,-8.429691941E-2,-2.356343269E-1,-2.849602401E-1
5.149191137E0,-1.507265568E-1,-2.597627938E-1,-2.134911120E-1
5.154746137E0,-2.283041626E-1,-2.698417902E-1,-1.511846930E-1
5.160301137E0,-3.107685447E-1,-2.313583940E-1,-1.052184403E-1
5.165856137E0,-3.918585181E-1,-1.319430023E-1,-7.574506104E-2
5.171411137E0,-4.737120569E-1,1.481304597E-2,-5.558710173E-2
5.176966137E0,-5.570927262E-1,1.840177327E-1,-3.802524135E-2
5.182521137E0,-6.361974478E-1,3.602471650E-1,-2.565558441E-2
5.188076137E0,-7.061394453E-1,5.277720094E-1,-1.618745178E-2
5.193631137E0,-7.603521347E-1,6.798729897E-1,-7.330167107E-3
5.199186137E0,-7.982246280E-1,7.957812548E-1,9.162708884E-4
5.204741137E0,-8.235748410E-1,8.545753360E-1,1.145338640E-2
5.210296137E0,-8.391514421E-1,8.499939442E-1,2.428117767E-2
5.215851137E0,-8.510629535E-1,7.812736630E-1,3.878879920E-2
5.221406137E0,-8.553388715E-1,6.584933400E-1,5.238015205E-2
5.226961137E0,-8.470924497E-1,5.111264586E-1,6.215370819E-2
5.232516137E0,-8.214368224E-1,3.631486893E-1,6.413896382E-2
5.238071137E0,-7.795938253E-1,2.315111160E-1,5.971032009E-2
5.243626137E0,-7.183563709E-1,1.261399537E-1,5.222744122E-2
5.249181137E0,-6.467345357E-1,4.291202128E-2,5.070032179E-2
5.254736137E0,-5.683933496E-1,-2.489202656E-2,5.299099907E-2
5.260291137E0,-4.908157587E-1,-7.650861889E-2,5.299099907E-2
5.265846137E0,-4.132381678E-1,-1.097997949E-1,5.222744122E-2
5.271401137E0,-3.402419090E-1,-1.307213157E-1,5.375456065E-2
5.276956137E0,-2.796153426E-1,-1.484358907E-1,5.329642445E-2
5.282511137E0,-2.328855246E-1,-1.850867122E-1,6.016845629E-2
5.288066137E0,-2.079934925E-1,-2.458660156E-1,7.482878864E-2
5.293621137E0,-2.031067163E-1,-3.104631305E-1,7.757759839E-2
5.299176137E0,-2.105895877E-1,-3.509317636E-1,7.085828483E-2
5.304731137E0,-2.232646793E-1,-3.555130959E-1,5.741964281E-2
5.310286137E0,-2.399102598E-1,-3.278722763E-1,4.413371533E-2
5.315841137E0,-2.629697323E-1,-2.881672084E-1,3.665083647E-2
5.321396137E0,-3.011476994E-1,-2.533488870E-1,4.169032723E-2
5.326951137E0,-3.370349705E-1,-2.119639963E-1,6.001574174E-2
5.332506137E0,-3.590254784E-1,-1.491994411E-1,9.193251282E-2
5.338061137E0,-3.594835997E-1,-7.024743408E-2,1.136175916E-1
5.343616137E0,-3.452814221E-1,1.175880991E-2,1.238492802E-1
5.349171137E0,-3.251234591E-1,8.490777016E-2,1.426328421E-1
5.354726137E0,-3.002314270E-1,1.473668963E-1,1.733279079E-1
5.360281137E0,-2.730487287E-1,1.944021434E-1,1.995943487E-1
5.365836137E0,-2.490729690E-1,2.278460264E-1,2.174616307E-1
5.371391137E0,-2.325800955E-1,2.392994165E-1,2.180724740E-1
5.376946137E0,-2.228065431E-1,2.232646793E-1,2.075353563E-1
5.382501137E0,-2.177670449E-1,1.878355294E-1,1.892099380E-1
5.388056137E0,-2.142546773E-1,1.472141892E-1,1.690519750E-1
5.393611137E0,-1.995943487E-1,1.209477559E-1,1.545443535E-1
5.399166137E0,-1.792836636E-1,9.788827598E-2,1.365243644E-1
5.404721137E0,-1.582094431E-1,6.749862432E-2,1.127013192E-1
5.410276137E0,-1.383569092E-1,3.558185324E-2,8.582404256E-2
5.415831137E0,-1.267508119E-1,-3.206948051E-3,6.306997687E-2
5.421386137E0,-1.140757278E-1,-3.038965166E-2,5.543438718E-2
5.426941137E0,-9.177979827E-2,-4.520269856E-2,5.176930502E-2
5.432496137E0,-8.567132801E-2,-9.376505762E-2,3.985778242E-2
5.438051137E0,-9.208522737E-2,-1.727170646E-1,1.924168877E-2
5.443606137E0,-9.956810623E-2,-2.548760176E-1,-1.374406274E-3
5.449161137E0,-1.082726792E-1,-3.393256664E-1,-6.872031838E-3
5.454716137E0,-1.140757278E-1,-4.130854607E-1,-1.832541777E-3
5.460271137E0,-1.127013192E-1,-4.657710493E-1,1.832541777E-3
5.465826137E0,-1.010952219E-1,-4.969242513E-1,-3.665083554E-3
5.471381137E0,-8.414421231E-2,-5.144860744E-1,-1.328592747E-2
5.476936137E0,-6.917845458E-2,-5.291464329E-1,-2.855710872E-2
5.482491137E0,-5.344913527E-2,-5.444176197E-1,-4.566083103E-2
5.488046137E0,-4.046862945E-2,-5.622848868E-1,-6.948387623E-2
5.493601137E0,-3.176405653E-2,-5.838172436E-1,-9.926267713E-2
5.499156137E0,-2.626643144E-2,-6.039752364E-1,-1.342336833E-1
5.504711137E0,-2.275406010E-2,-6.207735538E-1,-1.791309565E-1
5.510266137E0,-1.679829881E-2,-6.513158679E-1,-2.151709497E-1
5.515821137E0,-1.863084175E-2,-7.003363967E-1,-2.382304370E-1
5.521376137E0,-2.443389036E-2,-7.722636461E-1,-2.483094037E-1
5.526931137E0,-3.420744836E-2,-8.585458398E-1,-2.481566966E-1
5.532486137E0,-4.688252881E-2,-9.481876493E-1,-2.414373755E-1
5.538041137E0,-6.261184067E-2,-1.038440347E0,-2.316638231E-1
5.543596137E0,-7.574506104E-2,-1.116476059E0,-2.232646793E-1
5.549151137E0,-8.842013776E-2,-1.175270081E0,-2.147128135E-1
5.554706137E0,-9.758284688E-2,-1.213295341E0,-2.037175596E-1
5.560261137E0,-1.027750522E-1,-1.227650285E0,-1.931804419E-1
5.565816137E0,-1.065928489E-1,-1.216807723E0,-1.843231618E-1
5.571371137E0,-1.038440317E-1,-1.188861489E0,-1.730224788E-1
5.576926137E0,-9.926267713E-2,-1.152516007E0,-1.615691036E-1
5.582481137E0,-9.437590092E-2,-1.101662993E0,-1.493521482E-1
5.588036137E0,-9.147437662E-2,-1.037982225E0,-1.368297935E-1
5.593591137E0,-8.979454637E-2,-9.666658044E-1,-1.261399537E-1
5.599146137E0,-9.055810422E-2,-9.013051391E-1,-1.087308154E-1
5.604701137E0,-9.437590092E-2,-8.399149776E-1,-8.215895295E-2
5.610256137E0,-9.758284688E-2,-7.756233215E-1,-4.810422286E-2
5.615811137E0,-9.773556143E-2,-7.116370797E-1,-2.748812549E-3
5.621366137E0,-9.193251282E-2,-6.493306160E-1,4.428642616E-2
5.626921137E0,-8.903098851E-2,-5.995466113E-1,8.322793990E-2
5.632476137E0,-8.674030751E-2,-5.555655956E-1,1.078145429E-1
5.638031137E0,-8.338065445E-2,-5.121954083E-1,1.288887709E-1
5.643586137E0,-7.773031294E-2,-4.688252807E-1,1.550024897E-1
5.649141137E0,-7.330167294E-2,-4.202629030E-1,1.829487532E-1
5.654696137E0,-7.330167294E-2,-3.662029207E-1,2.069245130E-1
5.660251137E0,-7.941014320E-2,-3.127537966E-1,2.186833173E-1
5.665806137E0,-8.658760041E-2,-2.622061968E-1,2.234173864E-1
5.671361137E0,-9.376505762E-2,-2.179197669E-1,2.255553454E-1
5.676916137E0,-1.018587798E-1,-1.759240031E-1,2.252499312E-1
5.682471137E0,-1.078145429E-1,-1.385096163E-1,2.225011140E-1
5.688026137E0,-1.085781008E-1,-1.116323397E-1,2.168507725E-1
5.693581137E0,-1.050657257E-1,-1.024696305E-1,2.073826492E-1
5.699136137E0,-9.620844573E-2,-1.188097894E-1,1.843231618E-1
5.704691137E0,-8.215895295E-2,-1.615691036E-1,1.537808031E-1
5.710246137E0,-6.490252167E-2,-2.263189107E-1,1.185043678E-1
5.715801137E0,-3.894151375E-2,-3.045073450E-1,8.093725890E-2
5.721356137E0,-1.160609815E-2,-3.810159862E-1,4.367557913E-2
5.726911137E0,1.878355257E-2,-4.472928941E-1,1.313321572E-2
5.732466137E0,4.932591692E-2,-4.982986450E-1,-1.236965694E-2
5.738021137E0,7.635590434E-2,-5.303681493E-1,-3.680354729E-2
5.743576137E0,9.651386738E-2,-5.288410187E-1,-5.940489471E-2
5.749131137E0,1.072036922E-1,-4.807367921E-1,-7.177454978E-2
5.754686137E0,1.062874198E-1,-4.114056230E-1,-6.810946763E-2
5.760241137E0,9.422318637E-2,-3.445178568E-1,-5.085303262E-2
5.765796137E0,7.925742865E-2,-2.912214398E-1,-3.023693897E-2
5.771351137E0,7.024743408E-2,-2.615953386E-1,-2.382304333E-2
5.776906137E0,6.749862432E-2,-2.608317733E-1,-4.352286831E-2
5.782461137E0,6.688777357E-2,-2.750339806E-1,-7.421794534E-2
5.788016137E0,7.207997888E-2,-2.898470163E-1,-9.926267713E-2
5.793571137E0,7.941014320E-2,-3.011476994E-1,-1.029277667E-1
5.799126137E0,9.132166207E-2,-3.040492237E-1,-8.551861346E-2
5.804681137E0,1.058292910E-1,-2.974826097E-1,-5.879404768E-2
5.810236137E0,1.221694499E-1,-2.846548259E-1,-4.153761268E-2
5.815791137E0,1.339282542E-1,-2.658712566E-1,-3.588727489E-2
5.821346137E0,1.363716573E-1,-2.348707765E-1,-3.771981969E-2
5.826901137E0,1.261399537E-1,-1.939440072E-1,-3.848337755E-2
5.832456137E0,1.044548824E-1,-1.392731816E-1,-3.573456407E-2
5.838011137E0,7.635590434E-2,-7.421794534E-2,-2.947338112E-2
5.843566137E0,4.627167806E-2,3.206948051E-3,-2.473931387E-2
5.849121137E0,1.695101149E-2,8.674030751E-2,-1.847812906E-2
5.854676137E0,-8.704573847E-3,1.664558798E-1,-1.160609815E-2
5.860231137E0,-2.779355086E-2,2.273878902E-1,-6.108472589E-3
5.865786137E0,-3.848337755E-2,2.504473627E-1,-6.566607859E-3
5.871341137E0,-3.817795217E-2,2.489202619E-1,-1.588202827E-2
5.876896137E0,-3.008422814E-2,2.333436459E-1,-2.886253223E-2
5.882451137E0,-1.603474095E-2,2.101314515E-1,-4.199574888E-2
5.888006137E0,7.177455351E-3,1.788255423E-1,-5.711421743E-2
5.893561137E0,3.436015919E-2,1.427855492E-1,-6.994201243E-2
5.899116137E0,6.184828654E-2,1.049130186E-1,-8.322793990E-2
5.904671137E0,9.086353332E-2,6.872031838E-2,-9.544488788E-2
5.910226137E0,1.172826737E-1,3.420744836E-2,-1.035386100E-1
5.915781137E0,1.397313178E-1,2.596100792E-3,-1.082726792E-1
5.921336137E0,1.623326540E-1,-3.100049868E-2,-1.052184403E-1
5.926891137E0,1.805053651E-1,-6.352811307E-2,-9.865183383E-2
5.932446137E0,1.988307834E-1,-9.544488788E-2,-9.071081877E-2
5.938001137E0,2.189887464E-1,-1.246128380E-1,-8.170082420E-2
5.943556137E0,2.357870489E-1,-1.527118087E-1,-7.177454978E-2
5.949111137E0,2.553341687E-1,-1.780619770E-1,-6.490252167E-2
5.954666137E0,2.716743052E-1,-2.031067163E-1,-5.589252338E-2
5.960221137E0,2.851129472E-1,-2.264716178E-1,-5.085303262E-2
5.965776137E0,3.009949923E-1,-2.447970361E-1,-4.413371533E-2
5.971331137E0,3.151971996E-1,-2.631224692E-1,-3.680354729E-2
5.976886137E0,3.280249834E-1,-2.823641598E-1,-2.687728032E-2
5.982441137E0,3.361186981E-1,-2.994678617E-1,-1.863084175E-2
5.987996137E0,3.422271907E-1,-3.127537966E-1,-7.024743594E-3
5.993551137E0,3.471139669E-1,-3.251234591E-1,3.970507067E-3
5.999106137E0,3.516952991E-1,-3.379512429E-1,1.511846948E-2
6.004661137E0,3.552076817E-1,-3.437542915E-1,2.443389036E-2
6.010216137E0,3.539859951E-1,-3.445178568E-1,3.283303976E-2
6.015771137E0,3.539859951E-1,-3.367295563E-1,3.863608837E-2
6.021326137E0,3.539859951E-1,-3.214583695E-1,4.504998401E-2
6.026881137E0,3.504736125E-1,-3.054236174E-1,5.589252338E-2
6.032436137E0,3.434488773E-1,-2.941229641E-1,7.101099193E-2
6.037991137E0,3.293993771E-1,-2.921377122E-1,9.223793447E-2
6.043546137E0,3.136700690E-1,-2.980934680E-1,1.154501289E-1
6.049101137E0,2.977880239E-1,-3.098522723E-1,1.385096163E-1
6.054656137E0,2.826695740E-1,-3.191677034E-1,1.609582454E-1
6.060211137E0,2.745758295E-1,-3.202366829E-1,1.815743446E-1
6.065766137E0,2.724378705E-1,-3.084778786E-1,2.020377368E-1
6.071321137E0,2.756448388E-1,-2.849602401E-1,2.235700935E-1
6.076876137E0,2.828222811E-1,-2.535016239E-1,2.431172132E-1
6.082431137E0,2.936648130E-1,-2.151709497E-1,2.605263591E-1
6.087986137E0,3.098522723E-1,-1.708845198E-1,2.771719396E-1
6.093541137E0,3.286358118E-1,-1.276670843E-1,2.956500649E-1
6.099096137E0,3.457395434E-1,-8.964183182E-2,3.141281903E-1
6.104651137E0,3.619270027E-1,-5.787777901E-2,3.278722763E-1
6.110206137E0,3.805578351E-1,-3.665083647E-2,3.319954872E-1
6.115761137E0,4.008685052E-1,-2.733541466E-2,3.304683566E-1
6.121316137E0,4.210264683E-1,-1.908897609E-2,3.255815804E-1
6.126871137E0,4.440859556E-1,-2.748812549E-3,3.158080280E-1
6.132426137E0,4.674508572E-1,2.412846684E-2,3.060344756E-1
6.137981137E0,4.876088202E-1,5.543438718E-2,2.898470163E-1
6.143536137E0,5.080721974E-1,8.811471611E-2,2.702999115E-1
6.149091137E0,5.209000111E-1,1.113269106E-1,2.499892414E-1
6.154646137E0,5.283828974E-1,1.241547018E-1,2.347180545E-1
6.160201137E0,5.322006941E-1,1.343863904E-1,2.220429778E-1
6.165756137E0,5.318952799E-1,1.521009654E-1,2.082989216E-1
6.171311137E0,5.276193023E-1,1.748550236E-1,1.930277348E-1
6.176866137E0,5.215108395E-1,2.009687424E-1,1.855448484E-1
6.182421137E0,5.241069198E-1,2.504473627E-1,1.907370538E-1
6.187976137E0,5.412106514E-1,3.243598938E-1,2.072299272E-1
6.193531137E0,5.459447503E-1,3.793361485E-1,2.176143378E-1
6.199086137E0,5.378510356E-1,4.162923992E-1,2.234173864E-1
6.204641137E0,5.212054253E-1,4.375193417E-1,2.258607745E-1
6.210196137E0,5.025745630E-1,4.540122151E-1,2.270824611E-1
6.215751137E0,4.888305068E-1,4.825693369E-1,2.287622988E-1
6.221306137E0,4.865398407E-1,5.097520351E-1,2.363978922E-1
6.226861137E0,4.943281412E-1,5.308262706E-1,2.495311052E-1
6.232416137E0,5.106683373E-1,5.404471159E-1,2.635805905E-1
6.237971137E0,5.343386531E-1,5.421269536E-1,2.803788781E-1
6.243526137E0,5.656445622E-1,5.407525301E-1,3.022166789E-1
6.249081137E0,6.068767309E-1,5.375455618E-1,3.284831047E-1
6.254636137E0,6.545228362E-1,5.299099684E-1,3.535278440E-1
6.260191137E0,7.047650218E-1,5.283828974E-1,3.764346242E-1
6.265746137E0,7.560762167E-1,5.283828974E-1,3.973561525E-1
6.271301137E0,7.983773947E-1,5.381564498E-1,4.204156399E-1
6.276856137E0,8.318212628E-1,5.615213513E-1,4.373666346E-1
6.282411137E0,8.567132950E-1,5.815265775E-1,4.469874799E-1
6.287966137E0,8.733588457E-1,5.919110179E-1,4.494308829E-1
6.293521137E0,8.842014074E-1,5.906893015E-1,4.477510452E-1
6.299076137E0,8.883246183E-1,5.786250830E-1,4.414898455E-1
6.304631137E0,8.881719112E-1,5.528167486E-1,4.300364852E-1
6.310186137E0,8.828269839E-1,5.239542127E-1,4.196520746E-1
6.315741137E0,8.724426031E-1,4.984513521E-1,4.098785222E-1
6.321296137E0,8.561024070E-1,4.840964675E-1,3.924693763E-1
6.326851137E0,8.237275481E-1,4.842491746E-1,3.697153032E-1
6.332406137E0,7.785248160E-1,4.986040890E-1,3.465031087E-1
6.337961137E0,7.281299233E-1,4.995203316E-1,3.347443044E-1
6.343516137E0,6.766660213E-1,4.905103445E-1,3.235963285E-1
6.349071137E0,6.239804626E-1,4.992149174E-1,3.176405728E-1
6.354626137E0,5.720584393E-1,5.140279531E-1,3.161134422E-1
6.360181137E0,5.215108395E-1,5.347967744E-1,3.081724346E-1
6.365736137E0,4.721849263E-1,5.618267655E-1,2.958027720E-1
6.371291137E0,4.224008918E-1,6.033644080E-1,2.840439677E-1
6.376846137E0,3.727695346E-1,6.508577466E-1,2.762556672E-1
6.382401137E0,3.242071867E-1,6.879667044E-1,2.712161839E-1
6.387956137E0,2.843494117E-1,6.916317940E-1,2.794626355E-1
6.393511137E0,2.774773538E-1,6.142069101E-1,3.127537966E-1
6.399066137E0,2.786990702E-1,5.499152541E-1,3.271087110E-1
6.404621137E0,2.776300907E-1,5.102101564E-1,3.199312389E-1
6.410176137E0,2.591519356E-1,4.909684956E-1,2.907632887E-1
6.415731137E0,2.208212912E-1,4.747810364E-1,2.530434728E-1
6.421286137E0,1.696628332E-1,4.489727318E-1,2.185306102E-1
6.426841137E0,1.091889441E-1,4.147652984E-1,1.831014603E-1
6.432396137E0,5.085303262E-2,3.651339412E-1,1.504211426E-1
6.437951137E0,3.054236295E-3,3.037438095E-1,1.262926757E-1
6.443506137E0,-2.993151546E-2,2.414373755E-1,1.137702987E-1
6.449061137E0,-4.902049154E-2,1.937913001E-1,1.137702987E-1
6.454616137E0,-5.604523420E-2,1.696628332E-1,1.162136942E-1
6.460171137E0,-6.139015034E-2,1.530172378E-1,1.168245375E-1
6.465726137E0,-6.780404598E-2,1.420219839E-1,1.117850468E-1
6.471281137E0,-7.834116369E-2,1.287360638E-1,1.029277667E-1
6.476836137E0,-8.979454637E-2,1.128540337E-1,8.964183182E-2
6.482391137E0,-9.651386738E-2,9.437590092E-2,7.773031294E-2
6.487946137E0,-9.865183383E-2,8.231166750E-2,6.688777357E-2
6.493501137E0,-9.788827598E-2,7.543963939E-2,6.001574174E-2
6.499056137E0,-9.559759498E-2,7.177454978E-2,5.741964281E-2
6.504611137E0,-9.376505762E-2,6.673506647E-2,5.818320066E-2
6.510166137E0,-9.254335612E-2,6.337540597E-2,5.986303091E-2
6.515721137E0,-9.468132257E-2,6.001574174E-2,6.413896382E-2
6.521276137E0,-9.910997003E-2,6.169557199E-2,6.795676053E-2
6.526831137E0,-1.058292910E-1,6.688777357E-2,6.765133142E-2
6.532386137E0,-1.194206402E-1,7.803573459E-2,6.474980712E-2
6.537941137E0,-1.378987730E-1,9.651386738E-2,5.405998230E-2
6.543496137E0,-1.627907902E-1,1.207950488E-1,4.627167806E-2
6.549051137E0,-1.910424829E-1,1.499630064E-1,3.680354729E-2
6.554606137E0,-2.226538211E-1,1.780619770E-1,2.641914412E-2
6.560161137E0,-2.556395829E-1,2.002051920E-1,1.969982497E-2
6.565716137E0,-2.947337925E-1,2.162399292E-1,1.374406368E-2
6.571271137E0,-3.319954872E-1,2.319692522E-1,1.191152167E-2
6.576826137E0,-3.689517379E-1,2.466295809E-1,1.282779220E-2
6.582381137E0,-4.080459774E-1,2.669402659E-1,1.618745178E-2
6.587936137E0,-4.442386627E-1,3.048127890E-1,1.618745178E-2
6.593491137E0,-4.821111858E-1,3.555130959E-1,1.435491070E-2
6.599046137E0,-5.213581324E-1,4.085040987E-1,9.468132630E-3
6.604601137E0,-5.682406425E-1,4.582881629E-1,7.635590737E-4
6.610156137E0,-6.268820167E-1,4.949389994E-1,-1.557660475E-2
6.615711137E0,-6.908682585E-1,5.135698318E-1,-4.031591862E-2
6.621266137E0,-7.572978735E-1,5.195255876E-1,-6.398624927E-2
6.626821137E0,-8.183826208E-1,5.121954083E-1,-8.750387281E-2
6.632376137E0,-8.683193922E-1,5.114318728E-1,-1.078145429E-1
6.637931137E0,-8.967237473E-1,5.372401476E-1,-1.265980899E-1
6.643486137E0,-9.014578462E-1,5.726693273E-1,-1.484358907E-1
6.649041137E0,-8.881719112E-1,6.019899845E-1,-1.756185889E-1
6.654596137E0,-8.527427912E-1,6.163448691E-1,-2.020377368E-1
6.660151137E0,-7.950177193E-1,5.998520255E-1,-2.276933193E-1
6.665706137E0,-7.255338430E-1,5.477772951E-1,-2.661767006E-1
6.671261137E0,-6.558972597E-1,4.466820657E-1,-3.208475113E-1
6.676816137E0,-5.980194807E-1,3.129065037E-1,-3.810159862E-1
6.682371137E0,-5.526640415E-1,1.756185889E-1,-4.321744442E-1
6.687926137E0,-5.192201734E-1,7.528692484E-2,-4.653128982E-1
6.693481137E0,-4.898995161E-1,2.519745007E-2,-4.833329022E-1
6.699036137E0,-4.558447599E-1,2.260134928E-2,-4.854708612E-1
6.704591137E0,-4.097257853E-1,5.925218388E-2,-4.708105326E-1
6.710146137E0,-3.556658030E-1,1.233911440E-1,-4.369085133E-1
6.715701137E0,-2.990097404E-1,1.817270666E-1,-3.869717419E-1
6.721256137E0,-2.519744933E-1,2.250972092E-1,-3.318427801E-1
6.726811137E0,-2.150182426E-1,2.345653474E-1,-2.896943092E-1
6.732366137E0,-1.872246861E-1,2.000524700E-1,-2.687727809E-1
6.737921137E0,-1.589729935E-1,1.186570823E-1,-2.773246467E-1
6.743476137E0,-1.259872466E-1,-4.123218823E-3,-3.210002482E-1
6.749031137E0,-8.170082420E-2,-1.708845198E-1,-3.924693763E-1
6.754586137E0,-1.847812906E-2,-3.458922505E-1,-4.698942602E-1
6.760141137E0,6.474980712E-2,-4.963133931E-1,-5.070032477E-1
6.765696137E0,1.586675793E-1,-5.972558856E-1,-4.885250926E-1
6.771251137E0,2.464768738E-1,-6.546755433E-1,-4.346178174E-1
6.776806137E0,3.155026138E-1,-6.852179170E-1,-3.804051280E-1
6.782361137E0,3.582619131E-1,-7.003363967E-1,-3.477247953E-1
6.787916137E0,3.738385141E-1,-7.090409398E-1,-3.321481943E-1
6.793471137E0,3.626905680E-1,-7.082774043E-1,-3.243598938E-1
6.799026137E0,3.234436214E-1,-6.951441765E-1,-3.162661791E-1
6.804581137E0,2.635805905E-1,-6.662816405E-1,-3.054236174E-1
6.810136137E0,1.870719790E-1,-6.198572516E-1,-2.915268540E-1
6.815691137E0,1.047603041E-1,-5.613686442E-1,-2.768665254E-1
6.821246137E0,1.954711229E-2,-4.862344265E-1,-2.579302490E-1
6.826801137E0,-6.261184067E-2,-4.060607255E-1,-2.388412803E-1
6.832356137E0,-1.397313178E-1,-3.251234591E-1,-2.194468826E-1
6.837911137E0,-2.105895877E-1,-2.550287247E-1,-2.078407854E-1
6.843466137E0,-2.742704153E-1,-2.118112892E-1,-2.029540092E-1
6.849021137E0,-3.292466700E-1,-1.928750277E-1,-2.070772201E-1
6.854576137E0,-3.764346242E-1,-1.960819662E-1,-2.170034945E-1
6.860131137E0,-4.146125913E-1,-2.145601064E-1,-2.289150059E-1
6.865686137E0,-4.494308829E-1,-2.438807636E-1,-2.363978922E-1
6.871241137E0,-4.724903405E-1,-2.744231224E-1,-2.389939874E-1
6.876796137E0,-4.863871336E-1,-2.962609231E-1,-2.342599183E-1
6.882351137E0,-4.886777997E-1,-3.017585576E-1,-2.244863659E-1
6.887906137E0,-4.830274582E-1,-2.779355049E-1,-2.105895877E-1
6.893461137E0,-4.706578255E-1,-2.214321345E-1,-1.928750277E-1
6.899016137E0,-4.607315361E-1,-1.345391124E-1,-1.664558798E-1
6.904571137E0,-4.590517282E-1,-3.985778242E-2,-1.394258887E-1
6.910126137E0,-4.657710493E-1,4.688252881E-2,-1.140757278E-1
6.915681137E0,-4.740174711E-1,1.249182671E-1,-9.055810422E-2
6.921236137E0,-4.785988331E-1,1.899735034E-1,-7.116370648E-2
6.926791137E0,-4.679090083E-1,2.305948436E-1,-5.192201585E-2
6.932346137E0,-4.349232614E-1,2.586938143E-1,-3.268032894E-2
6.937901137E0,-3.796415627E-1,2.635805905E-1,-1.985253580E-2
6.943456137E0,-3.032856584E-1,2.272351831E-1,-1.221694518E-2
6.949011137E0,-2.084516287E-1,1.560714692E-1,-1.023169141E-2
6.954566137E0,-9.544488788E-2,5.436540768E-2,-1.710372418E-2
6.960121137E0,2.565558441E-2,-6.505523622E-2,-1.954711229E-2
6.965676137E0,1.414111406E-1,-1.901262105E-1,-1.435491070E-2
6.971231137E0,2.388412803E-1,-2.994678617E-1,-2.748812549E-3
6.976786137E0,3.106158376E-1,-3.730749488E-1,1.007897966E-2
6.982341137E0,3.515425920E-1,-3.991886973E-1,1.634016447E-2
6.987896137E0,3.633013964E-1,-3.823903799E-1,1.603474095E-2
6.993451137E0,3.506263196E-1,-3.336753249E-1,1.450762246E-2
6.999006137E0,3.203893900E-1,-2.608317733E-1,1.496575773E-2
7.004561137E0,2.727433145E-1,-1.705790907E-1,1.832541823E-2
7.010116137E0,2.147128135E-1,-7.375980914E-2,2.473931387E-2
7.015671137E0,1.491994411E-1,2.260134928E-2,3.222219273E-2
7.021226137E0,8.154810965E-2,1.142284349E-1,3.726168349E-2
7.026781137E0,1.817270555E-2,2.049392611E-1,4.245388508E-2
7.032336137E0,-3.619270027E-2,2.901524603E-1,4.764608666E-2
7.037891137E0,-8.429691941E-2,3.643703759E-1,5.176930502E-2
7.043446137E0,-1.226275861E-1,4.214846194E-1,5.436540768E-2
7.049001137E0,-1.537808031E-1,4.555393457E-1,5.741964281E-2
7.054556137E0,-1.789782494E-1,4.639385045E-1,5.894676223E-2
7.060111137E0,-1.992889196E-1,4.544703662E-1,5.726693198E-2
7.065666137E0,-2.142546773E-1,4.295783341E-1,5.238015205E-2
7.071221137E0,-2.231119573E-1,3.981196880E-1,4.489727318E-2
7.076776137E0,-2.260134816E-1,3.559712470E-1,3.481829539E-2
7.082331137E0,-2.228065431E-1,3.081724346E-1,2.290677279E-2
7.087886137E0,-2.163926363E-1,2.510582209E-1,1.007897966E-2
7.093441137E0,-2.082989216E-1,1.841704547E-1,-3.054236295E-4
7.098996137E0,-1.969982386E-1,1.162136942E-1,-1.282779220E-2
7.104551137E0,-1.864611208E-1,5.405998230E-2,-2.458660305E-2
7.110106137E0,-1.730224788E-1,0.000000000E0,-3.649812192E-2
7.115661137E0,-1.594311297E-1,-4.199574888E-2,-4.581354558E-2
7.121216137E0,-1.444653720E-1,-7.192726433E-2,-5.329642445E-2
7.126771137E0,-1.250709742E-1,-9.376505762E-2,-6.032116711E-2
7.132326137E0,-1.041494608E-1,-1.127013192E-1,-6.383354217E-2
7.137881137E0,-7.971556485E-2,-1.327065676E-1,-6.169557199E-2
7.143436137E0,-5.589252338E-2,-1.617218107E-1,-5.787777901E-2
7.148991137E0,-3.466558084E-2,-1.965401024E-1,-5.238015205E-2
7.154546137E0,-9.009997360E-3,-2.296785712E-1,-4.856235534E-2
7.160101137E0,1.756185852E-2,-2.589992285E-1,-4.657710344E-2
7.165656137E0,3.649812192E-2,-2.814478874E-1,-4.611896724E-2
7.171211137E0,5.329642445E-2,-2.964136302E-1,-4.947862774E-2
7.176766137E0,6.230641901E-2,-3.019112647E-1,-5.283828825E-2
7.182321137E0,6.536065787E-2,-3.017585576E-1,-5.894676223E-2
7.187876137E0,6.062658876E-2,-2.999260128E-1,-6.474980712E-2
7.193431137E0,5.268557742E-2,-2.898470163E-1,-6.459710002E-2
7.198986137E0,4.306473210E-2,-2.741177082E-1,-6.261184067E-2
7.204541137E0,3.298575059E-2,-2.533488870E-1,-5.986303091E-2
7.210096137E0,1.863084175E-2,-2.258607745E-1,-5.619794875E-2
7.215651137E0,1.527118147E-3,-1.950129867E-1,-5.192201585E-2
7.221206137E0,-1.939439960E-2,-1.592784226E-1,-4.902049154E-2
7.226761137E0,-4.627167806E-2,-1.198787764E-1,-4.535540938E-2
7.232316137E0,-7.574506104E-2,-7.849387079E-2,-4.077405483E-2
7.237871137E0,-1.050657257E-1,-3.161134571E-2,-3.466558084E-2
7.243426137E0,-1.304158866E-1,2.321219631E-2,-3.145863488E-2
7.248981137E0,-1.514901221E-1,8.017370105E-2,-2.611372061E-2
7.254536137E0,-1.640124917E-1,1.320957243E-1,-2.000524849E-2
7.260091137E0,-1.687465608E-1,1.777565479E-1,-1.404948719E-2
7.265646137E0,-1.667613089E-1,2.122694254E-1,-1.053711493E-2
7.271201137E0,-1.603474021E-1,2.341072112E-1,-7.635590620E-3
7.276756137E0,-1.453816444E-1,2.409792393E-1,1.679830020E-3
7.282311137E0,-1.269035190E-1,2.367033064E-1,8.551862091E-3
7.287866137E0,-1.044548824E-1,2.188360244E-1,2.000524849E-2
7.293421137E0,-7.910472155E-2,1.927223057E-1,3.176405653E-2
7.298976137E0,-5.131116882E-2,1.647760421E-1,4.230117425E-2
7.304531137E0,-2.535016090E-2,1.317902952E-1,4.902049154E-2
7.310086137E0,1.527118147E-4,9.483403713E-2,5.711421743E-2
7.315641137E0,2.122694254E-2,5.894676223E-2,5.986303091E-2
7.321196137E0,3.985778242E-2,2.626643144E-2,6.016845629E-2
7.326751137E0,5.451811850E-2,-1.832541777E-3,5.787777901E-2
7.332306137E0,6.368082762E-2,-2.596100792E-2,5.161659420E-2
7.337861137E0,7.040014863E-2,-4.184303805E-2,4.413371533E-2
7.343416137E0,7.192726433E-2,-4.947862774E-2,3.542914242E-2
7.348971137E0,7.223268598E-2,-5.131116882E-2,2.550287358E-2
7.354526137E0,7.177454978E-2,-4.902049154E-2,1.481304597E-2
7.360081137E0,6.642963737E-2,-3.848337755E-2,1.221694518E-3
7.365636137E0,5.925218388E-2,-2.229592577E-2,-1.618745178E-2
7.371191137E0,4.779879749E-2,-4.581354442E-4,-3.756710514E-2
7.376746137E0,2.901524492E-2,1.969982497E-2,-6.474980712E-2
7.382301137E0,6.261184346E-3,3.481829539E-2,-9.788827598E-2
7.387856137E0,-1.496575773E-2,4.245388508E-2,-1.299577504E-1
7.393411137E0,-3.863608837E-2,4.840964451E-2,-1.582094431E-1
7.398966137E0,-5.589252338E-2,5.054761097E-2,-1.806580722E-1
7.404521137E0,-6.734590977E-2,5.543438718E-2,-1.962346882E-1
7.410076137E0,-7.742489129E-2,5.757235363E-2,-2.072299272E-1
7.415631137E0,-8.689302206E-2,5.803048983E-2,-2.174616307E-1
7.421186137E0,-9.697200358E-2,5.803048983E-2,-2.266243398E-1
7.426741137E0,-1.053711548E-1,5.665608495E-2,-2.299840003E-1
7.432296137E0,-1.130067408E-1,5.650337040E-2,-2.336490750E-1
7.437851137E0,-1.197260618E-1,5.879404768E-2,-2.376195788E-1
7.443406137E0,-1.223221645E-1,6.215370819E-2,-2.356343269E-1
7.448961137E0,-1.227803007E-1,6.658235192E-2,-2.247917950E-1
7.454516137E0,-1.180462316E-1,7.207997888E-2,-2.118112892E-1
7.460071137E0,-1.185043678E-1,7.406523079E-2,-2.015796006E-1
7.465626137E0,-1.211004704E-1,7.330167294E-2,-1.902789176E-1
7.471181137E0,-1.287360638E-1,7.330167294E-2,-1.780619770E-1
7.476736137E0,-1.380514801E-1,7.223268598E-2,-1.664558798E-1
7.482291137E0,-1.479777545E-1,7.727217674E-2,-1.537808031E-1
7.487846137E0,-1.569877416E-1,8.460234851E-2,-1.438545287E-1
7.493401137E0,-1.666085869E-1,9.040539712E-2,-1.372879148E-1
7.498956137E0,-1.759240031E-1,9.055810422E-2,-1.359135211E-1
7.504511137E0,-1.860029846E-1,8.567132801E-2,-1.378987730E-1
7.510066137E0,-1.915006191E-1,7.375980914E-2,-1.408002973E-1
7.515621137E0,-1.953184158E-1,5.467082933E-2,-1.406475753E-1
7.521176137E0,-1.936385781E-1,3.512371704E-2,-1.392731816E-1
7.526731137E0,-1.866138428E-1,1.649287529E-2,-1.377460510E-1
7.532286137E0,-1.771457046E-1,-1.527118147E-3,-1.325538605E-1
7.537841137E0,-1.693574041E-1,-1.725643501E-2,-1.252236813E-1
7.543396137E0,-1.611109674E-1,-2.611372061E-2,-1.177408099E-1
7.548951137E0,-1.569877416E-1,-2.794626169E-2,-1.070509851E-1
7.554506137E0,-1.575985998E-1,-2.473931387E-2,-9.605573118E-2
7.560061137E0,-1.615691036E-1,-1.634016447E-2,-8.506047726E-2
7.565616137E0,-1.693574041E-1,-2.901524538E-3,-7.131642103E-2
7.571171137E0,-1.756185889E-1,1.114796288E-2,-5.696150661E-2
7.576726137E0,-1.801999360E-1,3.603998944E-2,-4.153761268E-2
7.582281137E0,-1.766875684E-1,6.765133142E-2,-2.993151546E-2
7.587836137E0,-1.656923145E-1,1.030804738E-1,-2.336490713E-2
7.593391137E0,-1.491994411E-1,1.392731816E-1,-2.290677279E-2
7.598946137E0,-1.270562261E-1,1.698155403E-1,-2.657185495E-2
7.604501137E0,-1.038440317E-1,1.908897758E-1,-2.886253223E-2
7.610056137E0,-8.200624585E-2,2.024958730E-1,-2.962609194E-2
7.615611137E0,-6.398624927E-2,2.035648525E-1,-3.100049868E-2
7.621166137E0,-4.749337584E-2,1.960819662E-1,-3.161134571E-2
7.626721137E0,-3.497100621E-2,1.798945218E-1,-3.756710514E-2
7.632276137E0,-2.626643144E-2,1.533226669E-1,-3.955236077E-2
7.637831137E0,-1.985253580E-2,1.183516532E-1,-4.306473210E-2
7.643386137E0,-1.450762246E-2,8.185353130E-2,-4.566083103E-2
7.648941137E0,-8.093725890E-3,4.779879749E-2,-5.070032179E-2
7.654496137E0,-3.359660041E-3,1.496575773E-2,-5.757235363E-2
7.660051137E0,9.162708884E-4,-6.566607859E-3,-6.200099736E-2
7.665606137E0,4.428642802E-3,-1.466033421E-2,-6.429167092E-2
7.671161137E0,3.359660041E-3,-9.926267900E-3,-6.276455522E-2
7.676716137E0,-1.832541777E-3,1.221694518E-3,-5.772506446E-2
7.682271137E0,-1.298050396E-2,1.191152167E-2,-5.390727147E-2
7.687826137E0,-2.840439789E-2,2.107422985E-2,-5.115845799E-2
7.693381137E0,-4.199574888E-2,2.428117767E-2,-4.734066129E-2
7.698936137E0,-5.940489471E-2,1.801999472E-2,-4.398100078E-2
7.704491137E0,-7.543963939E-2,4.275931045E-3,-3.909422457E-2
7.710046137E0,-8.628217876E-2,-1.603474095E-2,-3.329117596E-2
7.715601137E0,-9.177979827E-2,-3.710897267E-2,-2.748812735E-2
7.721156137E0,-9.208522737E-2,-5.390727147E-2,-2.321219631E-2
7.726711137E0,-9.208522737E-2,-5.971032009E-2,-2.076880634E-2
7.732266137E0,-8.964183182E-2,-6.123743951E-2,-1.924168877E-2
7.737821137E0,-9.055810422E-2,-6.093201414E-2,-1.786728203E-2
7.743376137E0,-9.193251282E-2,-5.726693198E-2,-1.527118124E-2
7.748931137E0,-9.468132257E-2,-4.886778072E-2,-1.374406368E-2
7.754486137E0,-9.636115283E-2,-3.878879920E-2,-1.252236869E-2
7.760041137E0,-1.003316641E-1,-3.038965166E-2,-1.374406368E-2
7.765596137E0,-1.067455560E-1,-2.535016090E-2,-1.664558798E-2
7.771151137E0,-1.139230132E-1,-2.351761982E-2,-1.863084175E-2
7.776706137E0,-1.212531775E-1,-2.443389036E-2,-1.893626526E-2
7.782261137E0,-1.320957243E-1,-2.260134928E-2,-1.710372418E-2
7.787816137E0,-1.392731816E-1,-1.618745178E-2,-1.282779220E-2
7.793371137E0,-1.458397806E-1,-1.679830020E-3,-9.926267900E-3
7.798926137E0,-1.507265568E-1,2.321219631E-2,-1.038440317E-2
7.804481137E0,-1.548497826E-1,5.482354015E-2,-1.191152167E-2
7.810036137E0,-1.608055383E-1,9.132166207E-2,-1.511846948E-2
7.815591137E0,-1.696628332E-1,1.275143623E-1,-1.878355257E-2
7.821146137E0,-1.791309565E-1,1.650814712E-1,-2.092151903E-2
7.826701137E0,-1.910424829E-1,2.002051920E-1,-1.969982497E-2
7.832256137E0,-2.055501044E-1,2.298312783E-1,-1.450762246E-2
7.837811137E0,-2.174616307E-1,2.521272004E-1,-7.635590620E-3
7.843366137E0,-2.293731421E-1,2.677038014E-1,-5.650337320E-3
7.848921137E0,-2.376195788E-1,2.771719396E-1,-6.261184346E-3
7.854476137E0,-2.438807636E-1,2.751866877E-1,-7.635590620E-3
7.860031137E0,-2.476985604E-1,2.724378705E-1,-6.108472589E-3
7.865586137E0,-2.444916219E-1,2.684673667E-1,-3.206948051E-3
7.871141137E0,-2.382304370E-1,2.602209449E-1,1.527118147E-4
7.876696137E0,-2.272351831E-1,2.499892414E-1,6.719320081E-3
7.882251137E0,-2.093679011E-1,2.411319613E-1,1.343864016E-2
7.887806137E0,-1.864611208E-1,2.309002578E-1,2.122694254E-2
7.893361137E0,-1.597365588E-1,2.192941606E-1,3.145863488E-2
7.898916137E0,-1.308740228E-1,2.026485801E-1,3.802524135E-2
7.904471137E0,-1.026223376E-1,1.818797737E-1,4.672981426E-2
7.910026137E0,-7.711946964E-2,1.600419879E-1,5.360184610E-2
7.915581137E0,-5.680879578E-2,1.328592747E-1,5.955760926E-2
7.921136137E0,-4.016320780E-2,1.078145429E-1,6.001574174E-2
7.926691137E0,-2.611372061E-2,8.842013776E-2,5.421269313E-2
7.932246137E0,-1.588202827E-2,7.101099193E-2,3.939964995E-2
7.937801137E0,-6.719320081E-3,5.344913527E-2,2.458660305E-2
7.943356137E0,-1.068982761E-3,3.191677108E-2,1.481304597E-2
7.948911137E0,4.275931045E-3,5.192201585E-3,1.068982668E-2
7.954466137E0,1.114796288E-2,-2.565558441E-2,5.344913341E-3
7.960021137E0,1.572931744E-2,-6.474980712E-2,-9.162708884E-4
7.965576137E0,2.137965336E-2,-1.075091213E-1,-9.009997360E-3
7.971131137E0,2.504473738E-2,-1.496575773E-1,-1.695101149E-2
7.976686137E0,2.550287358E-2,-1.850867122E-1,-2.367033064E-2
7.982241137E0,2.428117767E-2,-2.102841735E-1,-2.718270384E-2
7.987796137E0,1.985253580E-2,-2.261662036E-1,-3.023693897E-2
7.993351137E0,1.328592747E-2,-2.362451702E-1,-3.420744836E-2
7.998906137E0,2.596100792E-3,-2.426590770E-1,-3.848337755E-2
8.004461137E0,-9.468132630E-3,-2.473931462E-1,-4.275930673E-2
8.010016137E0,-2.199050039E-2,-2.513636351E-1,-4.795150831E-2
8.015571137E0,-3.405473381E-2,-2.606790662E-1,-5.268557742E-2
8.021126137E0,-3.665083647E-2,-2.805316150E-1,-3.680354729E-2
8.026681137E0,-4.764608666E-2,-3.104631305E-1,-5.497625098E-3
8.032236137E0,-5.848862603E-2,-3.359659910E-1,7.635590737E-4
8.037791137E0,-6.429167092E-2,-3.367295563E-1,-1.863084175E-2
8.043346137E0,-6.444438547E-2,-3.150444627E-1,-5.344913527E-2
8.048901137E0,-6.383354217E-2,-2.794626355E-1,-8.215895295E-2
8.054456137E0,-6.322269142E-2,-2.441861928E-1,-9.009996802E-2
8.060011137E0,-6.688777357E-2,-2.170034945E-1,-7.834116369E-2
8.065566137E0,-7.375980914E-2,-2.037175596E-1,-5.955760926E-2
8.071121137E0,-7.879929990E-2,-1.995943487E-1,-4.428642616E-2
8.076676137E0,-7.666133344E-2,-1.940967143E-1,-4.184303805E-2
8.082231137E0,-6.810946763E-2,-1.815743446E-1,-4.275930673E-2
8.087786137E0,-5.573981255E-2,-1.681357026E-1,-4.199574888E-2
8.093341137E0,-4.275930673E-2,-1.563768983E-1,-3.771981969E-2
8.098896137E0,-3.100049868E-2,-1.456870735E-1,-2.855710872E-2
8.104451137E0,-2.122694254E-2,-1.353026628E-1,-2.092151903E-2
8.110006137E0,-1.511846948E-2,-1.246128380E-1,-1.435491070E-2
8.115561137E0,-9.162709117E-3,-1.122431830E-1,-9.926267900E-3
8.121116137E0,-6.413896102E-3,-9.895725548E-2,-5.497625098E-3
8.126671137E0,-3.970507067E-3,-8.261708915E-2,-1.527118147E-4
8.132226137E0,-2.137965523E-3,-6.841489673E-2,5.650337320E-3
8.137781137E0,3.970507067E-3,-5.115845799E-2,9.773556143E-3
8.143336137E0,1.114796288E-2,-3.497100621E-2,1.267508045E-2
8.148891137E0,1.908897609E-2,-1.939439960E-2,1.420219894E-2
8.154446137E0,2.489202656E-2,-4.734066315E-3,1.618745178E-2
8.160001137E0,3.283303976E-2,7.482878864E-3,1.664558798E-2
8.165556137E0,3.802524135E-2,1.420219894E-2,1.649287529E-2
8.171111137E0,3.863608837E-2,1.496575773E-2,1.328592747E-2
8.176666137E0,3.649812192E-2,8.399149403E-3,5.803049076E-3
8.182221137E0,3.008422814E-2,-5.192201585E-3,-2.290677279E-3
8.187776137E0,2.382304333E-2,-2.367033064E-2,-1.221694518E-2
8.193331137E0,1.359135192E-2,-5.115845799E-2,-2.260134928E-2
8.198886137E0,1.374406274E-3,-7.681404054E-2,-3.390202299E-2
8.204441137E0,-9.315420873E-3,-9.727742523E-2,-4.291202128E-2
8.209996137E0,-2.168507688E-2,-1.127013192E-1,-4.947862774E-2
8.215551137E0,-3.573456407E-2,-1.198787764E-1,-5.864133686E-2
8.221106137E0,-5.131116882E-2,-1.143811494E-1,-6.520794332E-2
8.226661137E0,-6.673506647E-2,-9.788827598E-2,-7.192726433E-2
8.232216137E0,-8.215895295E-2,-7.207997888E-2,-7.589777559E-2
8.237771137E0,-9.865183383E-2,-4.092676565E-2,-7.757759839E-2
8.243326137E0,-1.116323397E-1,-6.413896102E-3,-7.559234649E-2
8.248881137E0,-1.194206402E-1,2.764083818E-2,-7.406523079E-2
8.254436137E0,-1.220167428E-1,5.390727147E-2,-7.269082218E-2
8.259991137E0,-1.215586066E-1,7.116370648E-2,-6.978929788E-2
8.265546137E0,-1.151447073E-1,8.597674966E-2,-6.261184067E-2
8.271101137E0,-1.073564067E-1,1.010952219E-1,-5.558710173E-2
8.276656137E0,-9.681928903E-2,1.162136942E-1,-4.978405312E-2
8.282211137E0,-8.628217876E-2,1.313321590E-1,-4.382828996E-2
8.287766137E0,-7.375980914E-2,1.366770715E-1,-3.909422457E-2
8.293321137E0,-6.154286116E-2,1.314848661E-1,-3.695625812E-2
8.298876137E0,-4.871506989E-2,1.136175916E-1,-3.558185324E-2
8.304431137E0,-3.573456407E-2,8.612946421E-2,-3.771981969E-2
8.309986137E0,-2.168507688E-2,6.062658876E-2,-4.153761268E-2
8.315541137E0,-1.191152167E-2,3.833066672E-2,-4.398100078E-2
8.321096137E0,-3.817795310E-3,2.229592577E-2,-4.718795046E-2
8.326651137E0,3.054236295E-4,1.221694518E-2,-5.222744122E-2
8.332206137E0,-1.221694518E-3,6.872031838E-3,-5.757235363E-2
8.337761137E0,-6.566607859E-3,1.221694518E-3,-6.093201414E-2
8.343316137E0,-1.603474095E-2,-1.527118147E-4,-6.887302548E-2
8.348871137E0,-2.794626169E-2,-6.108472589E-4,-7.391251624E-2
8.354426137E0,-3.878879920E-2,1.527118147E-3,-7.986827940E-2
8.359981137E0,-4.749337584E-2,2.443389036E-3,-8.674030751E-2
8.365536137E0,-5.115845799E-2,4.886778072E-3,-9.407047927E-2
8.371091137E0,-5.192201585E-2,1.145338640E-2,-1.010952219E-1
8.376646137E0,-4.856235534E-2,2.412846684E-2,-1.064401343E-1
8.382201137E0,-4.291202128E-2,4.077405483E-2,-1.102579311E-1
8.387756137E0,-3.726168349E-2,5.986303091E-2,-1.122431830E-1
8.393311137E0,-3.069507517E-2,7.452336699E-2,-1.114796251E-1
8.398866137E0,-2.473931387E-2,8.032641560E-2,-1.101052165E-1
8.404421137E0,-1.756185852E-2,7.528692484E-2,-1.111742035E-1
8.409976137E0,-1.206423342E-2,6.123743951E-2,-1.117850468E-1
8.415531137E0,-5.344913341E-3,4.031591862E-2,-1.122431830E-1
8.421086137E0,4.734066315E-3,1.466033421E-2,-1.111742035E-1
8.426641137E0,1.481304597E-2,-9.315420873E-3,-1.081199646E-1
8.432196137E0,2.626643144E-2,-3.268032894E-2,-1.026223376E-1
8.437751137E0,3.573456407E-2,-5.283828825E-2,-9.712471068E-2
8.443306137E0,3.985778242E-2,-6.826218218E-2,-9.040539712E-2
8.448861137E0,4.092676565E-2,-8.093725890E-2,-8.460234851E-2
8.454416137E0,3.726168349E-2,-8.918370306E-2,-7.650861889E-2
8.459971137E0,3.115320951E-2,-9.315420687E-2,-6.872031838E-2
8.465526137E0,2.428117767E-2,-9.345962852E-2,-6.032116711E-2
8.471081137E0,1.786728203E-2,-9.620844573E-2,-5.680879578E-2
8.476636137E0,1.420219894E-2,-1.015533581E-1,-5.741964281E-2
8.482191137E0,1.267508045E-2,-1.085781008E-1,-6.245913357E-2
8.487746137E0,1.557660475E-2,-1.175880954E-1,-6.566607952E-2
8.493301137E0,2.137965336E-2,-1.298050433E-1,-6.963659078E-2
8.498856137E0,2.779355086E-2,-1.455343664E-1,-7.727217674E-2
8.504411137E0,3.497100621E-2,-1.679829955E-1,-8.506047726E-2
8.509966137E0,4.016320780E-2,-1.930277348E-1,-9.132166207E-2
8.515521137E0,4.169032723E-2,-2.168507725E-1,-9.177979827E-2
8.521076137E0,4.016320780E-2,-2.392994165E-1,-8.567132801E-2
8.526631137E0,3.863608837E-2,-2.542651594E-1,-7.788302749E-2
8.532186137E0,3.863608837E-2,-2.623589039E-1,-6.765133142E-2
8.537741137E0,4.077405483E-2,-2.672456801E-1,-5.787777901E-2
8.543296137E0,4.611896724E-2,-2.728960216E-1,-5.039490014E-2
8.548851137E0,5.314370990E-2,-2.828222811E-1,-4.321744293E-2
8.554406137E0,5.940489471E-2,-3.006895781E-1,-3.726168349E-2
8.559961137E0,6.108472496E-2,-3.255815804E-1,-3.283303976E-2
8.565516137E0,6.123743951E-2,-3.527642787E-1,-3.252761811E-2
8.571071137E0,5.940489471E-2,-3.758237660E-1,-3.405473381E-2
8.576626137E0,5.390727147E-2,-3.888042867E-1,-3.710897267E-2
8.582181137E0,4.917320609E-2,-3.917058110E-1,-4.291202128E-2
8.587736137E0,4.169032723E-2,-3.897205591E-1,-4.886778072E-2
8.593291137E0,3.252761811E-2,-3.875826001E-1,-5.390727147E-2
8.598846137E0,2.061609551E-2,-3.903313875E-1,-5.833591148E-2
8.604401137E0,7.788302377E-3,-3.987305462E-1,-6.536065787E-2
8.609956137E0,-1.679830020E-3,-4.057552814E-1,-7.055285573E-2
8.615511137E0,-8.857285604E-3,-4.121691883E-1,-7.360709459E-2
8.621066137E0,-1.298050396E-2,-4.170559645E-1,-7.498150319E-2
8.626621137E0,-1.649287529E-2,-4.181249440E-1,-7.406523079E-2
8.632176137E0,-2.076880634E-2,-4.132381678E-1,-7.024743408E-2
8.637731137E0,-2.397575416E-2,-4.033119082E-1,-6.612421572E-2
8.643286137E0,-2.870982140E-2,-3.939964771E-1,-6.368082762E-2
8.648841137E0,-3.588727489E-2,-3.800997138E-1,-6.032116711E-2
8.654396137E0,-4.443913698E-2,-3.662029207E-1,-5.543438718E-2
8.659951137E0,-5.665608495E-2,-3.529170156E-1,-5.131116882E-2
8.665506137E0,-6.795676053E-2,-3.431434333E-1,-4.825693369E-2
8.671061137E0,-7.788302749E-2,-3.374931216E-1,-4.550812021E-2
8.676616137E0,-8.597674966E-2,-3.260397315E-1,-4.275930673E-2
8.682171137E0,-9.223793447E-2,-3.113794029E-1,-3.985778242E-2
8.687726137E0,-9.697200358E-2,-2.933593988E-1,-3.802524135E-2
8.693281137E0,-1.000262350E-1,-2.767138183E-1,-3.817795217E-2
8.698836137E0,-1.049130186E-1,-2.583884001E-1,-3.970507160E-2
8.704391137E0,-1.110214889E-1,-2.441861928E-1,-3.909422457E-2
8.709946137E0,-1.139230132E-1,-2.318165302E-1,-3.542914242E-2
8.715501137E0,-1.162136942E-1,-2.189887464E-1,-3.649812192E-2
8.721056137E0,-1.214058921E-1,-2.043284029E-1,-3.848337755E-2
8.726611137E0,-1.218640283E-1,-1.913478971E-1,-4.367557913E-2
8.732166137E0,-1.256818175E-1,-1.791309565E-1,-4.611896724E-2
8.737721137E0,-1.320957243E-1,-1.658450365E-1,-4.764608666E-2
8.743276137E0,-1.365243644E-1,-1.478250325E-1,-4.917320609E-2
8.748831137E0,-1.427855492E-1,-1.247655526E-1,-5.085303262E-2
8.754386137E0,-1.458397806E-1,-9.101624042E-2,-5.329642445E-2
8.759941137E0,-1.496575773E-1,-5.253286287E-2,-5.222744122E-2
8.765496137E0,-1.513374150E-1,-5.344913341E-3,-4.795150831E-2
8.771051137E0,-1.478250325E-1,5.131116882E-2,-4.016320780E-2
8.776606137E0,-1.398840249E-1,1.102579311E-1,-2.565558441E-2
8.782161137E0,-1.294996142E-1,1.704263836E-1,-8.246437646E-3
8.787716137E0,-1.133121699E-1,2.237228155E-1,1.053711493E-2
8.793271137E0,-9.544488788E-2,2.644968629E-1,2.626643144E-2
8.798826137E0,-7.437065244E-2,2.935121059E-1,3.878879920E-2
8.804381137E0,-5.329642445E-2,3.119902313E-1,4.963133857E-2
8.809936137E0,-3.069507517E-2,3.191677034E-1,5.879404768E-2
8.815491137E0,-1.236965694E-2,3.112266660E-1,6.734590977E-2
8.821046137E0,4.886778072E-3,3.003841341E-1,7.574506104E-2
8.826601137E0,2.000524849E-2,2.886253297E-1,8.475505561E-2
8.832156137E0,3.390202299E-2,2.806843221E-1,9.009996802E-2
8.837711137E0,4.718795046E-2,2.854183912E-1,9.223793447E-2
8.843266137E0,5.772506446E-2,3.034383655E-1,9.223793447E-2
8.848821137E0,6.841489673E-2,3.269560039E-1,9.132166207E-2
8.854376137E0,7.207997888E-2,3.480302393E-1,8.994726092E-2
8.859931137E0,7.330167294E-2,3.631486893E-1,8.704573661E-2
8.865486137E0,6.780404598E-2,3.706315756E-1,7.971556485E-2
8.871041137E0,5.772506446E-2,3.666610718E-1,7.345438004E-2
8.876596137E0,4.428642616E-2,3.556658030E-1,6.642963737E-2
8.882151137E0,3.191677108E-2,3.413109183E-1,6.001574174E-2
8.887706137E0,1.847812906E-2,3.234436214E-1,5.405998230E-2
8.893261137E0,7.024743594E-3,3.074088693E-1,5.070032179E-2
8.898816137E0,-7.024743594E-3,2.899997234E-1,4.398100078E-2
8.904371137E0,-1.847812906E-2,2.724378705E-1,4.260659590E-2
8.909926137E0,-3.634541109E-2,2.538070381E-1,4.046862945E-2
8.915481137E0,-5.726693198E-2,2.353289127E-1,3.878879920E-2
8.921036137E0,-8.338065445E-2,2.171562016E-1,3.771981969E-2
8.926591137E0,-1.119377613E-1,2.017323077E-1,3.481829539E-2
8.932146137E0,-1.420219839E-1,1.992889196E-1,3.161134571E-2
8.937701137E0,-1.695101112E-1,2.063136548E-1,2.809897438E-2
8.943256137E0,-1.925695986E-1,2.264716178E-1,2.535016090E-2
8.948811137E0,-2.116585821E-1,2.498365343E-1,2.428117767E-2
8.954366137E0,-2.267770469E-1,2.709107697E-1,2.932066843E-2
8.959921137E0,-2.409792393E-1,2.828222811E-1,4.245388508E-2
8.965476137E0,-2.519744933E-1,2.887780368E-1,6.123743951E-2
8.971031137E0,-2.573194206E-1,2.947337925E-1,7.956285775E-2
8.976586137E0,-2.567085624E-1,3.048127890E-1,9.605573118E-2
8.982141137E0,-2.499892414E-1,3.180987239E-1,1.101052165E-1
8.987696137E0,-2.363978922E-1,3.339807391E-1,1.207950488E-1
8.993251137E0,-2.200577259E-1,3.520007432E-1,1.322484314E-1
8.998806137E0,-1.960819662E-1,3.710896969E-1,1.495048702E-1
9.004361137E0,-1.716480851E-1,3.910949528E-1,1.699682474E-1
9.009916137E0,-1.411057115E-1,4.146125913E-1,1.930277348E-1
9.015471137E0,-1.090362370E-1,4.396573007E-1,2.191414535E-1
9.021026137E0,-7.421794534E-2,4.721849263E-1,2.362451702E-1
9.026581137E0,-3.665083647E-2,5.176930428E-1,2.478512824E-1
9.032136137E0,4.428642802E-3,5.746545792E-1,2.533488870E-1
9.037691137E0,5.024218559E-2,6.435275674E-1,2.538070381E-1
9.043246137E0,9.773556143E-2,7.203416228E-1,2.493783981E-1
9.048801137E0,1.470614821E-1,7.962393761E-1,2.392994165E-1
9.054356137E0,1.971509457E-1,8.609892130E-1,2.212794125E-1
9.059911137E0,2.501419485E-1,8.996253014E-1,1.939440072E-1
9.065466137E0,3.022166789E-1,9.049702287E-1,1.574458778E-1
9.071021137E0,3.498627543E-1,8.826742768E-1,1.160609797E-1
9.076576137E0,3.898732662E-1,8.325847983E-1,7.711946964E-2
9.082131137E0,4.277457893E-1,7.572978735E-1,4.352286831E-2
9.087686137E0,4.599680007E-1,6.668924689E-1,1.603474095E-2
9.093241137E0,4.894413650E-1,5.648810267E-1,-6.108472589E-3
9.098796137E0,5.172349215E-1,4.541649222E-1,-2.260134928E-2
9.104351137E0,5.431959033E-1,3.443651497E-1,-3.313846514E-2
9.109906137E0,5.656445622E-1,2.336490750E-1,-3.649812192E-2
9.115461137E0,5.851916671E-1,1.220167428E-1,-3.619270027E-2
9.121016137E0,6.015318632E-1,1.404948719E-2,-3.588727489E-2
9.126571137E0,6.131379604E-1,-8.490777016E-2,-3.848337755E-2
9.132126137E0,6.174138784E-1,-1.818797737E-1,-4.718795046E-2
9.137681137E0,6.103891134E-1,-2.725905776E-1,-5.589252338E-2
9.143236137E0,5.896202922E-1,-3.536805511E-1,-6.444438547E-2
9.148791137E0,5.561764240E-1,-4.385883212E-1,-6.994201243E-2
9.154346137E0,5.109737515E-1,-5.445703268E-1,-6.719319522E-2
9.159901137E0,4.651601911E-1,-6.569662094E-1,-3.115320951E-2
9.165456137E0,4.060607255E-1,-7.458444834E-1,2.611372061E-2
9.171011137E0,3.374931216E-1,-7.995990515E-1,4.642439261E-2
9.176566137E0,2.661767006E-1,-8.238802552E-1,4.230117425E-2
9.182121137E0,1.918060333E-1,-8.156337738E-1,2.382304333E-2
9.187676137E0,1.125486046E-1,-7.785248160E-1,-1.221694518E-3
9.193231137E0,3.191677108E-2,-7.189671993E-1,-2.168507688E-2
9.198786137E0,-5.344913527E-2,-6.302416325E-1,-2.779355086E-2
9.204341137E0,-1.415638477E-1,-5.279247165E-1,-3.451287001E-2
9.209896137E0,-2.272351831E-1,-4.092676640E-1,-5.192201585E-2
9.215451137E0,-3.080197275E-1,-2.773246467E-1,-7.559234649E-2
9.221006137E0,-3.895678520E-1,-1.275143623E-1,-8.933641016E-2
9.226561137E0,-4.720322192E-1,3.527642787E-2,-8.139539510E-2
9.232116137E0,-5.589252710E-1,2.038702667E-1,-5.192201585E-2
9.237671137E0,-6.474980712E-1,3.710896969E-1,-1.450762246E-2
9.243226137E0,-7.369872332E-1,5.288410187E-1,1.863084175E-2
9.248781137E0,-8.220477104E-1,6.690304875E-1,4.077405483E-2
9.254336137E0,-9.000834227E-1,7.983773947E-1,5.176930502E-2
9.259891137E0,-9.717052579E-1,9.077190161E-1,5.222744122E-2
9.265446137E0,-1.036149621E0,9.926267862E-1,4.443913698E-2
9.271001137E0,-1.090209603E0,1.052337170E0,3.054236248E-2
9.276556137E0,-1.130525589E0,1.090667725E0,1.252236869E-2
9.282111137E0,-1.155112147E0,1.107618809E0,-1.023169141E-2
9.287666137E0,-1.155417562E0,1.112047434E0,-3.634541109E-2
9.293221137E0,-1.131441832E0,1.117392302E0,-6.123743951E-2
9.298776137E0,-1.085933685E0,1.124569774E0,-8.857285231E-2
9.304331137E0,-1.022252917E0,1.127929449E0,-1.171299592E-1
9.309886137E0,-9.449806809E-1,1.119683027E0,-1.408002973E-1
9.315441137E0,-8.533536196E-1,1.088682532E0,-1.546970755E-1
9.320996137E0,-7.527165413E-1,1.027597785E0,-1.565296054E-1
9.326551137E0,-6.424586177E-1,9.397885203E-1,-1.525591016E-1
9.332106137E0,-5.253286362E-1,8.206732869E-1,-1.487413049E-1
9.337661137E0,-4.052971601E-1,6.708629727E-1,-1.493521482E-1
9.343216137E0,-2.805316150E-1,4.909684956E-1,-1.652341783E-1
9.348771137E0,-1.606528312E-1,2.875563502E-1,-1.939440072E-1
9.354326137E0,-4.611896724E-2,7.146912813E-2,-2.344126403E-1
9.359881137E0,5.925218388E-2,-1.426328421E-1,-2.796153426E-1
9.365436137E0,1.531699449E-1,-3.329117596E-1,-3.155026138E-1
9.370991137E0,2.307475507E-1,-4.830274582E-1,-3.364241421E-1
9.376546137E0,2.880144715E-1,-5.867187977E-1,-3.454341292E-1
9.382101137E0,3.324536085E-1,-6.497887969E-1,-3.449759781E-1
9.387656137E0,3.633013964E-1,-6.823163629E-1,-3.381039500E-1
9.393211137E0,3.814741075E-1,-6.916317940E-1,-3.229855001E-1
9.398766137E0,3.851391971E-1,-6.740699410E-1,-3.055763543E-1
9.404321137E0,3.773508966E-1,-6.374191046E-1,-2.890834510E-1
9.409876137E0,3.526115716E-1,-6.088619828E-1,-2.718270421E-1
9.415431137E0,3.188622594E-1,-5.786250830E-1,-2.615953386E-1
9.420986137E0,2.793098986E-1,-5.413633585E-1,-2.579302490E-1
9.426541137E0,2.319692522E-1,-4.955498278E-1,-2.576248348E-1
9.432096137E0,1.798945218E-1,-4.404208660E-1,-2.539597452E-1
9.437651137E0,1.236965731E-1,-3.726168275E-1,-2.484621257E-1
9.443206137E0,6.933116168E-2,-2.910687327E-1,-2.400629669E-1
9.448761137E0,1.664558798E-2,-2.015796006E-1,-2.281514555E-1
9.454316137E0,-3.665083647E-2,-1.146865711E-1,-2.134911120E-1
9.459871137E0,-8.612946421E-2,-3.619270027E-2,-1.979145110E-1
9.465426137E0,-1.304158866E-1,2.565558441E-2,-1.805053651E-1
9.470981137E0,-1.655396074E-1,7.711946964E-2,-1.605001241E-1
9.476536137E0,-1.936385781E-1,1.160609797E-1,-1.403421611E-1
9.482091137E0,-2.128802687E-1,1.466033459E-1,-1.240019947E-1
9.487646137E0,-2.267770469E-1,1.811162084E-1,-1.096470803E-1
9.493201137E0,-2.362451702E-1,2.208212912E-1,-9.193251282E-2
9.498756137E0,-2.406738251E-1,2.715215981E-1,-7.040014863E-2
9.504311137E0,-2.415900975E-1,3.287885487E-1,-4.642439261E-2
9.509866137E0,-2.380777150E-1,3.901786804E-1,-2.489202656E-2
9.515421137E0,-2.276933193E-1,4.463766217E-1,-4.581354558E-3
9.520976137E0,-2.041756958E-1,4.989095032E-1,1.710372418E-2
9.526531137E0,-1.624853760E-1,5.425850749E-1,3.863608837E-2
9.532086137E0,-1.043021679E-1,5.735855699E-1,6.291726977E-2
9.537641137E0,-3.313846514E-2,5.839699507E-1,9.071081877E-2
9.543196137E0,4.963133857E-2,5.706840754E-1,1.217113137E-1
9.548751137E0,1.385096163E-1,5.291464329E-1,1.580567211E-1
9.554306137E0,2.351761907E-1,4.543176591E-1,1.899735034E-1
9.559861137E0,3.254288733E-1,3.573456407E-1,2.228065431E-1
9.565416137E0,4.114056230E-1,2.380777150E-1,2.521272004E-1
9.570971137E0,4.931064546E-1,1.087308154E-1,2.806843221E-1
9.576526137E0,5.685460567E-1,-1.725643501E-2,3.103103936E-1
9.582081137E0,6.371136904E-1,-1.288887709E-1,3.432961702E-1
9.587636137E0,7.017107606E-1,-2.153236568E-1,3.796415627E-1
9.593191137E0,7.583668828E-1,-2.770192325E-1,4.259132445E-1
9.598746137E0,8.061656952E-1,-3.168770075E-1,4.836383164E-1
9.604301137E0,8.467870355E-1,-3.390202224E-1,5.589252710E-1
9.609856137E0,8.767185211E-1,-3.503209054E-1,6.455128193E-1
9.615411137E0,8.939749599E-1,-3.510844707E-1,7.423321605E-1
9.620966137E0,9.084826112E-1,-3.338280320E-1,8.492304087E-1
9.626521137E0,9.203941226E-1,-2.909159958E-1,9.536852837E-1
9.632076137E0,9.312366247E-1,-2.214321345E-1,1.048977494E0
9.637631137E0,9.397885203E-1,-1.307213157E-1,1.131899953E0
9.643186137E0,9.477295280E-1,-2.947338112E-2,1.194664478E0
9.648741137E0,9.509364963E-1,5.894676223E-2,1.250709772E0
9.654296137E0,9.338327646E-1,1.137702987E-1,1.294538021E0
9.659851137E0,8.889354467E-1,1.038440317E-1,1.306602240E0
9.665406137E0,8.307522535E-1,5.986303091E-2,1.319582820E0
9.670961137E0,7.826480269E-1,8.674030751E-2,1.372421026E0
9.676516137E0,7.608102560E-1,2.382304370E-1,1.462826490E0
9.682071137E0,7.802046537E-1,5.471664071E-1,1.590493560E0
9.687626137E0,8.638907075E-1,1.055849433E0,1.760156393E0
9.693181137E0,1.089140654E0,1.852547050E0,1.995943427E0
9.698736137E0,1.390746474E0,2.695668936E0,2.270672083E0
9.704291137E0,1.571709991E0,3.189386368E0,2.531351089E0
9.709846137E0,1.591104388E0,3.192898512E0,2.719186544E0
9.715401137E0,1.509098172E0,2.805926800E0,2.812035322E0
9.720956137E0,1.400825500E0,2.172936440E0,2.805621386E0
9.726511137E0,1.313016176E0,1.426022887E0,2.723004341E0
9.732066137E0,1.265675545E0,7.259919643E-1,2.585869074E0
9.737621137E0,1.255901933E0,1.223221645E-1,2.429339647E0
9.743176137E0,1.274838209E0,-3.440597057E-1,2.295411348E0
9.748731137E0,1.321109891E0,-6.836907864E-1,2.189276695E0
9.754286137E0,1.387081385E0,-9.261971712E-1,2.108492136E0
9.759841137E0,1.452289343E0,-1.042410851E0,2.033663273E0
9.765396137E0,1.507265568E0,-1.052642584E0,1.956543803E0
9.770951137E0,1.544374585E0,-1.004385591E0,1.870261550E0
9.776506137E0,1.550024867E0,-9.306257963E-1,1.783368587E0
9.782061137E0,1.512305140E0,-8.246437907E-1,1.699529767E0
9.787616137E0,1.420219898E0,-6.728482842E-1,1.610498786E0
9.793171137E0,1.270714998E0,-5.089884996E-1,1.526049137E0
9.798726137E0,1.086391807E0,-3.869717419E-1,1.448624253E0
9.804281137E0,8.930587173E-1,-3.013004065E-1,1.368603230E0
9.809836137E0,7.154548764E-1,-2.351761907E-1,1.289956689E0
9.815391137E0,5.621321797E-1,-2.315111160E-1,1.237882018E0
9.820946137E0,4.167505503E-1,-3.255815804E-1,1.233758807E0
9.826501137E0,2.780882120E-1,-4.711159468E-1,1.260177851E0
9.832056137E0,1.661504507E-1,-5.931326747E-1,1.299424887E0
9.837611137E0,9.743013978E-2,-6.497887969E-1,1.352568507E0
9.843166137E0,7.360709459E-2,-5.937435627E-1,1.416860223E0
9.848721137E0,1.056765765E-1,-3.533751369E-1,1.492299795E0
9.854276137E0,1.479777545E-1,-3.176405653E-2,1.593089700E0
9.859831137E0,1.748550236E-1,2.796153426E-1,1.718618751E0
9.865386137E0,1.743968874E-1,5.341859460E-1,1.855448604E0
9.870941137E0,1.423274130E-1,7.153021693E-1,1.982962966E0
9.876496137E0,9.300149232E-2,8.078454733E-1,2.093831778E0
9.882051137E0,2.397575416E-2,8.309049606E-1,2.205158710E0
9.887606137E0,-5.054761097E-2,8.347227573E-1,2.304574013E0
9.893161137E0,-1.145338640E-1,8.432746530E-1,2.388565540E0
9.898716137E0,-1.637070626E-1,8.579349518E-1,2.432240963E0
9.904271137E0,-1.957765520E-1,8.629744649E-1,2.396964550E0
9.909826137E0,-2.345653474E-1,7.701256871E-1,2.311904192E0
9.915381137E0,-2.675510943E-1,6.287145615E-1,2.199966431E0
9.920936137E0,-2.893888950E-1,4.329380095E-1,2.090319395E0
9.926491137E0,-2.808370292E-1,2.334963679E-1,1.966317296E0
9.932046137E0,-2.444916219E-1,5.986303091E-2,1.840024710E0
9.937601137E0,-1.953184158E-1,-1.128540337E-1,1.731904745E0
9.943156137E0,-1.491994411E-1,-3.022166789E-1,1.666544080E0
9.948711137E0,-1.012479365E-1,-4.706578255E-1,1.615690947E0
9.954266137E0,-4.856235534E-2,-6.540647149E-1,1.583468795E0
9.959821137E0,2.641914412E-2,-8.360971808E-1,1.559493065E0
9.965376137E0,1.264453828E-1,-1.036760569E0,1.540404081E0
9.970931137E0,2.403683960E-1,-1.195580840E0,1.521925926E0
9.976486137E0,3.506263196E-1,-1.278656006E0,1.511847019E0
9.982041137E0,4.344651103E-1,-1.307671309E0,1.520398855E0
9.987596137E0,4.727957845E-1,-1.297592282E0,1.550635815E0
9.993151137E0,4.813476503E-1,-1.205659747E0,1.555217147E0
9.998706137E0,4.758500159E-1,-1.065317631E0,1.517497301E0
1.000426114E1,4.311054647E-1,-9.246700406E-1,1.459772229E0
1.000981614E1,3.713951409E-1,-7.771504521E-1,1.362494826E0
1.001537114E1,2.935121059E-1,-6.833853722E-1,1.266286373E0
1.002092614E1,2.157817930E-1,-6.320741773E-1,1.165038466E0
1.002648114E1,1.684411317E-1,-6.113054156E-1,1.035386086E0
1.003203614E1,1.382041872E-1,-6.029062271E-1,9.026795626E-1
1.003759114E1,1.027750522E-1,-6.302416325E-1,8.015843034E-1
1.004314614E1,6.429167092E-2,-6.646018028E-1,7.388197780E-1
1.004870114E1,2.412846684E-2,-6.896465421E-1,6.943806410E-1
1.005425614E1,-1.038440317E-2,-7.240067124E-1,6.473453641E-1
1.005981114E1,-5.039490014E-2,-7.956285477E-1,6.132906675E-1
1.006536614E1,-1.036913246E-1,-8.878664970E-1,5.989357233E-1
1.007092114E1,-1.551551968E-1,-9.408574700E-1,5.815265775E-1
1.007647614E1,-2.096733153E-1,-9.242119193E-1,5.719057322E-1
1.008203114E1,-2.747285664E-1,-8.359444737E-1,5.567872524E-1
1.008758614E1,-3.373403847E-1,-7.026270628E-1,5.248705149E-1
1.009314114E1,-3.970507085E-1,-5.763344169E-1,4.865398407E-1
1.009869614E1,-4.530959427E-1,-4.278984964E-1,4.416425824E-1
1.010425114E1,-5.118899941E-1,-2.603736520E-1,3.981196880E-1
1.010980614E1,-5.624375939E-1,-1.101052165E-1,3.463504016E-1
1.011536114E1,-6.106945276E-1,8.551862091E-3,3.150444627E-1
1.012091614E1,-6.513158679E-1,1.044548824E-1,2.802261710E-1
1.012647114E1,-6.739172339E-1,1.980672181E-1,2.186833173E-1
1.013202614E1,-6.884248853E-1,2.744231224E-1,1.374406368E-1
1.013758114E1,-7.047650218E-1,2.719797492E-1,6.551336497E-2
1.014313614E1,-7.313368917E-1,2.661767006E-1,3.359660041E-3
1.014869114E1,-7.432484031E-1,2.192941606E-1,-9.544488788E-2
1.015424614E1,-7.333221436E-1,1.716480851E-1,-2.043284029E-1
1.015980114E1,-7.015580535E-1,1.363716573E-1,-3.232909143E-1
1.016535614E1,-6.468872428E-1,8.429691941E-2,-4.520269632E-1
1.017091114E1,-5.679352283E-1,-7.635590737E-4,-5.859552622E-1
1.017646614E1,-4.801259339E-1,-1.301104724E-1,-7.160657048E-1
1.018202114E1,-3.874298632E-1,-2.964136302E-1,-8.331956863E-1
1.018757614E1,-3.025220931E-1,-4.957025647E-1,-9.286405444E-1
1.019313114E1,-2.333436459E-1,-6.995728016E-1,-9.891144037E-1
1.019868614E1,-2.040229887E-1,-8.713735938E-1,-1.017518878E0
1.020424114E1,-2.217375487E-1,-9.530744553E-1,-1.035233378E0
1.020979614E1,-2.799207568E-1,-8.935168386E-1,-1.068982720E0
1.021535114E1,-3.758237660E-1,-5.923691392E-1,-1.120446563E0
1.022090614E1,-5.170822144E-1,5.039489828E-3,-1.200620294E0
1.022646114E1,-7.153021693E-1,7.178982496E-1,-1.330730796E0
1.023201614E1,-9.379559755E-1,1.193442822E0,-1.543000221E0
1.023757114E1,-1.151905179E0,1.282015681E0,-1.821546555E0
1.024312614E1,-1.311489105E0,1.224596024E0,-2.131704330E0
1.024868114E1,-1.382347345E0,1.270714998E0,-2.428728819E0
1.025423614E1,-1.428771734E0,1.411820769E0,-2.682077646E0
1.025979114E1,-1.510319829E0,1.411515355E0,-2.850060701E0
1.026534614E1,-1.585606813E0,1.188708782E0,-2.934815645E0
1.027090114E1,-1.627144337E0,8.941276670E-1,-2.963678122E0
1.027645614E1,-1.639514089E0,6.907155514E-1,-2.954668283E0
1.028201114E1,-1.622715712E0,6.047387719E-1,-2.925194740E0
1.028756614E1,-1.593395114E0,6.103891134E-1,-2.876632452E0
1.029312114E1,-1.566517830E0,6.879667044E-1,-2.807759523E0
1.029867614E1,-1.538266063E0,8.124268651E-1,-2.721171856E0
1.030423114E1,-1.508640051E0,9.608627558E-1,-2.612899065E0
1.030978614E1,-1.473821759E0,1.100441337E0,-2.493020296E0
1.031534114E1,-1.421288848E0,1.231620789E0,-2.378792048E0
1.032089614E1,-1.341420531E0,1.333937645E0,-2.285943270E0
1.032645114E1,-1.241241574E0,1.394411564E0,-2.194926977E0
1.033200614E1,-1.129303813E0,1.411973476E0,-2.100856543E0
1.033756114E1,-1.009577751E0,1.384485364E0,-2.004800797E0
1.034311614E1,-8.838959932E-1,1.317902923E0,-1.903705478E0
1.034867114E1,-7.423321605E-1,1.195886254E0,-1.796654463E0
1.035422614E1,-5.978667736E-1,1.039203882E0,-1.681967974E0
1.035978114E1,-4.625640810E-1,8.744278550E-1,-1.574458838E0
1.036533614E1,-3.552076817E-1,6.923953891E-1,-1.472752690E0
1.037089114E1,-2.829749882E-1,4.756973088E-1,-1.364174604E0
1.037644614E1,-2.547233105E-1,2.551814318E-1,-1.253153205E0
1.038200114E1,-2.768665254E-1,4.214845970E-2,-1.163205862E0
1.038755614E1,-3.220692277E-1,-1.475196183E-1,-1.118003249E0
1.039311114E1,-3.860554695E-1,-3.055763543E-1,-1.121057391E0
1.039866614E1,-4.686725736E-1,-4.155288339E-1,-1.181836724E0
1.040422114E1,-5.604523420E-1,-4.735593498E-1,-1.305838704E0
1.040977614E1,-6.375718117E-1,-4.775298536E-1,-1.473363638E0
1.041533114E1,-6.934643388E-1,-4.706578255E-1,-1.652647257E0
1.042088614E1,-7.255338430E-1,-4.808894992E-1,-1.812383771E0
1.042644114E1,-7.325585485E-1,-5.196782947E-1,-1.943868637E0
1.043199614E1,-7.142331600E-1,-5.989357233E-1,-2.038091898E0
1.043755114E1,-6.728482842E-1,-7.125533223E-1,-2.077338934E0
1.044310614E1,-6.164975762E-1,-8.480086923E-1,-2.067565203E0
1.044866114E1,-5.502206683E-1,-9.923213720E-1,-2.008465767E0
1.045421614E1,-4.689779878E-1,-1.132358074E0,-1.913020849E0
1.045977114E1,-3.758237660E-1,-1.247350097E0,-1.790393353E0
1.046532614E1,-2.790044844E-1,-1.318055630E0,-1.649745703E0
1.047088114E1,-1.801999360E-1,-1.340962410E0,-1.501309872E0
1.047643614E1,-7.986827940E-2,-1.303242683E0,-1.352263093E0
1.048199114E1,1.924168877E-2,-1.216349602E0,-1.205507040E0
1.048754614E1,1.154501289E-1,-1.085933685E0,-1.060889006E0
1.049310114E1,2.272351831E-1,-9.005415440E-1,-9.300149679E-1
1.049865614E1,3.480302393E-1,-6.762079000E-1,-8.179244995E-1
1.050421114E1,4.640912116E-1,-4.335488379E-1,-7.006418109E-1
1.050976614E1,5.664080977E-1,-1.899735034E-1,-5.723638535E-1
1.051532114E1,6.482616663E-1,3.970507160E-2,-4.385883212E-1
1.052087614E1,7.145385742E-1,2.614426315E-1,-3.081724346E-1
1.052643114E1,7.598940134E-1,4.546230733E-1,-1.872246861E-1
1.053198614E1,7.821899056E-1,6.090146899E-1,-7.864658535E-2
1.053754114E1,7.779139876E-1,7.214106321E-1,1.557660475E-2
1.054309614E1,7.414158583E-1,8.047912717E-1,8.979454637E-2
1.054865114E1,6.730009913E-1,8.699992299E-1,1.437018216E-1
1.055420614E1,5.758762360E-1,9.287932515E-1,1.693574041E-1
1.055976114E1,4.508052766E-1,9.657495022E-1,1.702736765E-1
1.056531614E1,3.034383655E-1,9.733850956E-1,1.479777545E-1
1.057087114E1,1.345391124E-1,9.546015263E-1,1.206423342E-1
1.057642614E1,-5.360184610E-2,9.309312105E-1,9.544488788E-2
1.058198114E1,-2.498365343E-1,9.161182046E-1,6.719319522E-2
1.058753614E1,-4.468347728E-1,9.161182046E-1,2.901524492E-2
1.059309114E1,-6.433748603E-1,9.394831061E-1,-1.496575773E-2
1.059864614E1,-8.293778896E-1,9.820896983E-1,-5.726693198E-2
1.060420114E1,-9.965972900E-1,1.030346632E0,-1.000262350E-1
1.060975614E1,-1.143506050E0,1.077839971E0,-1.437018216E-1
1.061531114E1,-1.268577099E0,1.108840466E0,-1.806580722E-1
1.062086614E1,-1.374406338E0,1.120446563E0,-2.121167034E-1
1.062642114E1,-1.458245158E0,1.082879424E0,-2.333436459E-1
1.063197614E1,-1.523147583E0,9.930849075E-1,-2.440334857E-1
1.063753114E1,-1.575833201E0,8.655705452E-1,-2.483094037E-1
1.064308614E1,-1.614469290E0,7.255338430E-1,-2.411319613E-1
1.064864114E1,-1.646080613E0,5.952706337E-1,-2.327328026E-1
1.065419614E1,-1.678302884E0,4.737120569E-1,-2.373141646E-1
1.065975114E1,-1.707012653E0,3.347443044E-1,-2.707580328E-1
1.066530614E1,-1.737555027E0,1.795890927E-1,-3.358132839E-1
1.067086114E1,-1.769166350E0,1.893626526E-2,-4.278984964E-1
1.067641614E1,-1.780314326E0,-1.145338640E-1,-5.364766121E-1
1.068197114E1,-1.717091680E0,-1.259872466E-1,-6.484143734E-1
1.068752614E1,-1.415791273E0,2.538070381E-1,-7.229377031E-1
1.069308114E1,-8.283088803E-1,1.045159698E0,-7.136223316E-1
1.069863614E1,-2.454078794E-1,1.648524046E0,-6.336013079E-1
1.070419114E1,1.320957243E-1,1.706554532E0,-5.398362875E-1
1.070974614E1,3.067980409E-1,1.332868695E0,-4.715740979E-1
1.071530114E1,3.168770075E-1,6.525375843E-1,-4.486673176E-1
1.072085614E1,2.241809368E-1,-1.849340051E-1,-4.622586668E-1
1.072641114E1,9.895725548E-2,-1.018435121E0,-4.853181541E-1
1.073196614E1,1.130067464E-2,-1.721214890E0,-4.876088202E-1
1.073752114E1,-2.031067200E-2,-2.264868975E0,-4.523324072E-1
1.074307614E1,1.832541777E-3,-2.632904291E0,-3.907895386E-1
1.074863114E1,5.360184610E-2,-2.812188148E0,-3.327590525E-1
1.075418614E1,1.192679256E-1,-2.812493563E0,-2.895416021E-1
1.075974114E1,1.840177327E-1,-2.672304153E0,-2.736595869E-1
1.076529614E1,2.370087355E-1,-2.429034233E0,-2.713688910E-1
1.077085114E1,2.754921019E-1,-2.122388840E0,-2.606790662E-1
1.077640614E1,2.945810854E-1,-1.772373319E0,-2.105895877E-1
1.078196114E1,3.006895781E-1,-1.408155680E0,-8.475505561E-2
1.078751614E1,3.061871827E-1,-1.048519373E0,1.194206402E-1
1.079307114E1,3.353551328E-1,-6.801784039E-1,3.507790267E-1
1.079862614E1,3.935383558E-1,-3.013004065E-1,5.633538961E-1
1.080418114E1,4.834856093E-1,7.162184268E-2,7.530219555E-1
1.080973614E1,6.102364063E-1,4.199574888E-1,9.190196991E-1
1.081529114E1,7.806627750E-1,7.409577370E-1,1.061805248E0
1.082084614E1,1.001636744E0,1.023627281E0,1.187181592E0
1.082640114E1,1.251320601E0,1.269646049E0,1.294690728E0
1.083195614E1,1.517191887E0,1.473210931E0,1.384638071E0
1.083751114E1,1.769777179E0,1.601030707E0,1.466949701E0
1.084306614E1,1.994416356E0,1.628976941E0,1.547276139E0
1.084862114E1,2.173852682E0,1.537044406E0,1.619966984E0
1.085417614E1,2.290524483E0,1.323706031E0,1.700751424E0
1.085973114E1,2.347180605E0,1.028819442E0,1.809024215E0
1.086528614E1,2.371614456E0,7.235485911E-1,1.938065648E0
1.087084114E1,2.384594917E0,4.691306949E-1,2.055195570E0
1.087639614E1,2.399408102E0,2.887780368E-1,2.115974903E0
1.088195114E1,2.420024157E0,1.922641695E-1,2.098412991E0
1.088750614E1,2.446290493E0,1.554606259E-1,2.033968687E0
1.089306114E1,2.480345249E0,1.614163816E-1,1.947533727E0
1.089861614E1,2.520050287E0,1.922641695E-1,1.869039893E0
1.090417114E1,2.563420534E0,2.328855246E-1,1.813147426E0
1.090972614E1,2.607096195E0,2.756448388E-1,1.787339091E0
1.091528114E1,2.648022890E0,3.142809272E-1,1.773289561E0
1.092083614E1,2.675969124E0,3.284831047E-1,1.773136854E0
1.092639114E1,2.687880754E0,3.155026138E-1,1.785812020E0
1.093194614E1,2.688033342E0,2.774773538E-1,1.801999450E0
1.093750114E1,2.684673786E0,1.762294322E-1,1.809176922E0
1.094305614E1,2.677954435E0,-2.550287358E-2,1.803679228E0
1.094861114E1,2.668028116E0,-3.205420971E-1,1.760156393E0
1.095416614E1,2.641456366E0,-6.927008033E-1,1.678608298E0
1.095972114E1,2.548607588E0,-1.181684017E0,1.579040170E0
1.096527614E1,2.255095482E0,-2.026027679E0,1.492910743E0
1.097083114E1,1.768250108E0,-2.878923178E0,1.492147088E0
1.097638614E1,1.202911019E0,-3.297811747E0,1.553231835E0
1.098194114E1,5.868715048E-1,-3.326215982E0,1.649440289E0
1.098749614E1,-4.688252881E-2,-3.017280102E0,1.741678238E0
1.099305114E1,-6.697940230E-1,-2.378486633E0,1.794974685E0
1.099860614E1,-1.193137407E0,-1.444501042E0,1.787644506E0
1.100416114E1,-1.539640546E0,-3.318427801E-1,1.725948930E0
1.100971614E1,-1.710066915E0,8.599202037E-1,1.654785275E0
1.101527114E1,-1.702889442E0,2.102078199E0,1.639666796E0
1.102082614E1,-1.511083364E0,3.486105204E0,1.698613524E0
1.102638114E1,-1.175117373E0,4.932591438E0,1.805664539E0
1.103193614E1,-8.988617659E-1,5.835882187E0,1.922947168E0
1.103749114E1,-7.884510756E-1,6.060979366E0,2.029692650E0
1.104304614E1,-8.185353279E-1,5.721348286E0,2.126970053E0
1.104860114E1,-9.011524320E-1,4.994592667E0,2.189123869E0
1.105415614E1,-9.119949341E-1,4.127647877E0,2.208518267E0
1.105971114E1,-7.893673778E-1,3.292466640E0,2.189123869E0
1.106526614E1,-6.137487888E-1,2.448275805E0,2.167896986E0
1.107082114E1,-4.475983381E-1,1.549566746E0,2.157207012E0
1.107637614E1,-3.103103936E-1,6.679614782E-1,2.126206636E0
1.108193114E1,-1.976090819E-1,-1.024696305E-1,2.063441992E0
1.108748614E1,-9.147437662E-2,-6.319214702E-1,1.979755998E0
1.109304114E1,7.941014133E-3,-9.407047629E-1,1.905079842E0
1.109859614E1,1.068982705E-1,-1.001178622E0,1.820172071E0
