Time (s),Acceleration x (m/s^2),Acceleration y (m/s^2),Acceleration z (m/s^2),Absolute acceleration (m/s^2)
0.5047555833,1.215622101,4.162543945,6.332431641
0.5147985833,1.123713226,4.13275589,5.788313141
0.5248415833,0.7247927856,4.196822662,5.776787109
0.5348835833,0.1595681763,4.482129364,6.001619568
0.5449265833,-0.06511459351,4.993615723,5.952371979
0.5549695833,-0.1645079041,5.262306976,5.859115906
0.5650125833,-0.132923584,5.39642807,5.846392365
0.5750555834,-0.08083190918,5.527854767,5.758674774
0.5850985833,-0.01422042847,5.524860992,5.700146484
0.5951415833,0.0679586792,5.55554718,5.867049408
0.6051845833,0.1877096558,5.652096405,6.174809418
0.6152275833,0.09924362183,5.65149765,6.662345581
0.6252705833,-0.01182540894,5.870492249,6.931785278
0.6353135833,-0.2023791504,6.297853546,6.705006866
0.6453565834,-0.3775149536,6.514303436,6.320905609
0.6553995833,-0.4197271729,6.607709198,6.020031281
0.6654425833,-0.3345542908,6.673422546,5.931415558
0.6754855833,-0.09924362183,6.760092316,5.995332642
0.6855285833,0.03817062378,6.851701813,6.157894592
0.6955715833,0.1692979431,6.909032593,6.441554718
0.7056145833,0.3576063538,6.888525238,6.896009674
0.7156575834,0.494122467,6.906936951,7.488178253
0.7257005833,0.5230123901,6.982230377,8.070317688
0.7357435833,0.245489502,6.961872711,8.833730164
0.7457865833,-0.01826202393,7.019802246,9.506281586
0.7558295833,-0.08502319336,6.996301117,9.891131287
0.7658725833,0.1248403931,6.933581543,9.839039612
0.7759145833,0.3224295044,6.889872437,9.41916275
0.7859575833,0.2871029663,6.815926208,9.06694519
0.7960005833,-0.09430389404,6.592440948,8.954379272
0.8060435833,-0.3809577942,6.505771179,9.082063751
0.8160865833,-0.5442681885,6.57358017,9.273365936
0.8261295834,-0.6827302551,6.661597137,9.528884583
0.8361725833,-0.8074209595,6.729406128,9.712702332
0.8462155833,-0.8771759033,6.744075623,9.743538208
0.8562585833,-0.8906478882,6.723418579,9.630074158
0.8663015833,-0.9210346985,6.628366241,9.483828278
0.8763435833,-1.04138443,6.376290436,9.397906952
0.8863865833,-1.081051941,5.985902252,9.388027496
0.8964295833,-0.826431427,5.503455505,9.871671753
0.9064725833,-0.4263134766,4.847070465,10.70663544
0.9165155833,-0.01721420288,4.203109589,11.57752441
0.9265585833,0.1562750244,3.813020782,12.02000427
0.9366015834,0.06571334839,3.587290192,11.61659317
0.9466445833,0.1842668152,3.611689453,10.60035645
0.9566875833,0.4233197021,3.735931091,9.365723877
0.9667305833,0.2408491516,3.892804871,8.002658386
0.9767735833,0.3697311401,4.211492157,7.491172028
0.9868165833,0.9102571106,4.425996094,7.711962891
0.9968595833,0.9946815491,4.219425659,7.953410797
1.006902583,1.232237549,3.933220825,8.553512878
1.016945583,1.22744751,3.790417786,9.295819244
1.026988583,1.774110718,3.666774902,9.605974274
1.037031583,2.129172363,3.420836334,9.429042206
1.047074583,2.136656799,3.177592163,8.701255646
1.057117583,1.870360565,3.137774963,7.91568924
1.067160583,1.577419739,3.341201935,6.891069946
1.077203583,1.042282562,3.599265289,7.768694916
1.087246583,0.6515950012,3.656745758,9.038204956
1.097289583,0.4188290405,3.598217468,8.718918915
1.107332583,0.3174897766,3.7676651,8.519982605
1.117375583,0.4336482239,3.956272888,8.334069214
1.127418583,0.1609153748,4.208049316,7.648943939
1.137461583,0.3393443298,4.237837372,7.05797287
1.147504583,0.7228468323,4.048780518,6.90469162
1.157547583,0.7837701416,4.068988495,7.037465515
1.167590583,0.5655239868,4.211342468,7.089257813
1.177633583,0.2933898926,4.170627136,7.181466064
1.187676583,0.1721420288,3.968397675,7.605085144
1.197718583,0.04505630493,3.732488251,8.050858154
1.207761583,-0.1299298096,3.616030426,8.38137085
1.217804583,-0.3357518005,3.633244629,8.306975555
1.227847583,-0.429307251,3.637286224,7.951015778
1.237890583,-0.3841012573,3.760180664,7.657625885
1.247933583,-0.2887495422,4.010759583,7.40899292
1.257976583,-0.2847079468,4.266727295,7.256460114
1.268019583,-0.2487826538,4.441414032,7.376510468
1.278062583,-0.2730322266,4.629872131,7.726782074
1.288105583,-0.4478686523,4.683011627,7.789801025
1.298148583,-0.6773414612,4.530927887,7.409142609
1.308191583,-1.097667389,4.374203796,7.093449097
1.318234583,-1.573976898,4.408482513,7.216642914
1.328277583,-1.741328888,4.552632751,7.457641754
1.338320583,-1.493594055,4.788841553,7.620952148
1.348363583,-0.9575587463,5.15542923,7.789052582
1.358406583,-0.4502636719,5.469625854,8.053552551
1.368449583,-0.2555186462,5.583538971,8.433013458
1.378492583,-0.109871521,5.427114258,9.069040833
1.388535583,-0.2097138977,5.386847992,9.747579803
1.398578583,-0.353714447,5.511538696,10.06207581
1.408621583,-0.02724334717,5.280269623,10.32193542
1.418664583,0.03622467041,5.248834991,10.47596512
1.428707583,-0.04370910645,5.361101532,10.55574921
1.438750583,-0.03607498169,5.43744278,10.60379929
1.448793583,-0.2477348328,5.687123566,10.18077896
1.458836583,-0.2633024597,5.774242401,9.765692139
1.468879583,-0.2258802795,5.796995087,9.6122612
1.478922583,-0.1721420288,5.709277496,9.639803925
1.488965583,0.0002993774414,5.391937408,9.71868988
1.499008583,0.2721340942,4.84183136,9.790989532
1.509051583,0.4120930481,4.392914886,9.878258057
1.519094583,0.5643264771,4.127816162,10.10773087
1.529137583,0.5478607178,3.949237518,10.59616516
1.539179583,0.2757266235,3.708388367,11.29625931
1.549222583,-0.05014572144,3.350931702,12.18301529
1.559265583,-0.1514849854,3.052602081,12.93774582
1.569308583,-0.04086502075,2.98254776,13.05031174
1.579351583,0.1207987976,3.172502747,12.47999771
1.589394583,0.3743714905,3.537593536,11.49893784
1.599437583,0.699944458,3.90807312,10.43390259
1.609480583,1.032103729,4.102069702,9.576335907
1.619523583,1.162033539,4.130660248,9.048832855
1.629566583,1.219813385,4.0251297,8.743916931
1.639609583,1.317709808,3.915856934,8.512049103
1.649652583,1.439107361,3.913312225,8.243357849
1.659695583,1.679357758,4.022135925,7.947872314
1.669738583,1.63340332,4.08126297,7.857011261
1.679781583,1.573378143,4.062402191,7.936495972
1.689824583,1.344653778,3.934118958,7.611222382
1.699867583,0.9286688232,3.597319336,7.046746216
1.709910583,0.682281189,3.33356781,6.475384369
1.719953583,0.4249662781,3.236120453,6.258635101
1.729996583,0.122744751,3.155438232,6.435118103
1.740039583,-0.2348616028,3.003953247,6.800807648
1.750082583,-0.4360432434,2.889141998,7.060816956
1.760125583,-0.6391708374,2.951412506,7.101981354
1.770169292,-0.6506968689,3.161725159,6.93747345
1.780212292,-0.5093907166,3.477418671,6.702013092
1.790255292,-0.3429368591,3.764371948,6.727310486
1.800298292,-0.3504212952,3.937561798,7.002288666
1.810341292,-0.2890489197,4.057462463,7.42306366
1.820384292,-0.1362167358,4.152065735,7.759563904
1.830427292,0.016615448,4.193978577,7.935448151
1.840470292,0.07813751221,4.309089203,8.008196869
1.850513292,-0.0426612854,4.359983368,7.909851379
1.860556292,-0.1423539734,4.344415741,7.836204529
1.870598292,-0.1022373962,4.4006987,7.903863831
1.880641292,-0.0004490661621,4.611011353,7.983947296
1.890684292,-0.04430786133,4.88628891,8.059989166
1.900727292,-0.08412506104,5.16126709,7.976612549
1.910770292,0.05508544922,5.346731415,7.80911087
1.920813292,0.2360591125,5.491031342,7.673043823
1.930856292,0.4562512207,5.640720062,7.726782074
1.940899292,0.4796026611,5.722001038,8.046966248
1.950942292,0.2683918762,5.606591034,8.319998474
1.960985292,-0.06391708374,5.376070404,8.523874512
1.971028292,-0.274379425,5.183570709,8.679850159
1.981071292,-0.3418890381,5.104984131,8.818461914
1.991114292,-0.3899391174,5.175188141,9.061706085
2.001157292,-0.4929249573,5.22907608,9.264983368
2.011200292,-0.5128335571,5.182672577,9.383836212
2.021243292,-0.543968811,5.156926117,9.411828003
2.031286292,-0.6078858948,5.114264832,9.405840454
2.041329292,-0.5477110291,5.094356232,9.459129639
2.051372292,-0.5204676819,5.246739349,9.838291168
2.061415292,-0.6427633667,5.42217453,10.16865417
2.071458292,-0.7246430969,5.509742432,10.20338196
2.081501292,-0.8397537231,5.669609985,10.06985962
2.091544292,-0.9360035706,5.895340576,9.92930191
2.101587292,-0.7725434875,6.035748596,9.826166382
2.111630292,-0.255668335,6.012696533,9.876312103
2.121673292,0.09909393311,5.854325867,10.20577698
2.131716292,-0.0889151001,5.388344879,10.83821182
2.141759292,-0.5138813782,4.451592865,11.38517441
2.151802292,-1.02387085,3.483106842,11.62003601
2.161845292,-1.35962265,2.826272736,11.49235153
2.171888292,-1.256936188,2.590363312,10.96245346
2.181931292,-0.8916957092,2.833457794,10.10114456
2.191974292,-0.5834866333,3.389252014,9.22022644
2.202017292,-0.2167492676,3.808979187,8.683592377
2.212060292,0.01017883301,3.911815338,8.504564667
2.222102292,-0.05463638306,3.689976654,8.681646423
2.232145292,-0.3146456909,3.222648468,9.186546478
2.242188292,-0.5472619629,2.754721527,9.75506424
2.252231292,-0.609382782,2.474204865,10.10099487
2.262274292,-0.5384303284,2.355501709,10.05968079
2.272317292,-0.245489502,2.417622528,9.727222137
2.282360292,0.06107299805,2.638862457,9.297914886
2.292403292,0.2704875183,2.964136047,8.797056427
2.302446292,0.3553610229,3.227438507,8.212072906
2.312489292,0.3809577942,3.355272675,7.614365845
2.322532292,0.3441343689,3.418441315,7.198680267
2.332575292,0.2384541321,3.528761902,7.062313843
2.342618292,0.1571731567,3.651506653,7.200775909
2.352661292,0.09131011963,3.757635956,7.443271637
2.362704292,-0.01047821045,3.913761292,7.65358429
2.372747292,-0.1315763855,4.010609894,7.492219849
2.382790292,-0.1851649475,3.998934174,7.121740265
2.392833292,-0.2215393066,4.117188263,6.95378952
2.402876292,-0.2471360779,4.17601593,7.011569366
2.412919292,-0.3580554199,4.102668457,7.094496918
2.422962292,-0.6420149231,3.890858917,7.144642639
2.433005292,-0.8988807678,3.656596069,7.362589417
2.443048292,-0.9891430664,3.544329529,7.727829895
2.453091292,-0.9774673462,3.605103149,8.146209869
2.463134292,-0.8101153564,3.780837708,8.414901123
2.473177292,-0.5016069031,4.065545654,8.522527313
2.483220292,-0.3113525391,4.398752747,8.677455139
2.493263292,-0.09804611206,4.672084351,8.85169281
2.503306292,-0.00628692627,4.810546417,8.716374207
2.513349292,0.003143463135,4.877457275,8.38481369
2.523392292,-0.06571334839,4.976102142,8.15549057
2.533435292,-0.1055305481,5.054539032,8.142767029
2.543478292,0.02619552612,5.123246155,8.242459717
2.553521292,0.06077362061,5.243296509,8.444090424
2.563564292,-0.002544708252,5.33909729,8.76741806
2.573607292,-0.07978408813,5.228327637,9.218879242
2.583649292,-0.2016307068,4.991071014,9.618548126
2.593692292,-0.2793191528,4.740492096,9.807904358
2.603735292,-0.2240840149,4.537663879,9.796078949
2.613778292,-0.342487793,4.454886017,9.798623657
2.623821292,-0.4248165894,4.341272278,9.915530548
2.633864292,-0.5522016907,4.17721344,10.16326538
2.643907292,-0.7518864441,4.076023865,10.42058029
2.653950292,-0.7560777283,4.127217407,10.50111282
2.663993292,-0.4382885742,4.384382629,10.52775742
2.674036292,-0.1887574768,4.792134705,10.62759979
2.684079292,0.0007484436035,5.23611145,10.55889267
2.694122292,0.3528163147,5.731581116,10.22448807
2.704165292,0.6917115784,6.230493622,9.644444275
2.714208292,0.9768685913,6.502478027,8.983418884
2.724251292,1.286125488,6.265670471,8.637039185
2.734294292,1.09407486,5.649701385,8.810229034
2.744337292,-0.5685177612,5.796246643,8.6434758
2.754380292,-1.098864899,4.209845581,9.474547577
2.764423292,-1.831291809,2.674188995,10.31894165
2.774466542,-2.444566498,2.109114075,10.87728058
2.784509542,-2.26523941,2.021097107,10.83282303
2.794552542,-1.431622925,2.254162445,10.5491629
2.804595542,-0.5358856201,2.847229156,10.16625916
2.814638542,0.0773890686,3.326981506,9.604776764
2.824681542,0.413739624,3.498973846,9.026678925
2.834724542,0.5399272156,3.511098633,8.570727081
2.844767542,0.7999365234,3.669768677,8.638536072
2.854810542,1.136436768,3.919898529,9.015901337
2.864853542,1.113684082,4.040847015,8.958271179
2.874896542,0.8653504944,3.967050476,8.521928558
2.884939542,0.4653822327,3.865711212,7.97526535
2.894982542,0.01646575928,3.724255371,7.504494324
2.905025542,-0.1381626892,3.599564667,7.151678009
2.915068542,-0.2183958435,3.587888947,6.935826874
2.925111542,-0.2330653381,3.592379608,6.82505722
2.935153542,-0.3318598938,3.525019684,6.734944611
2.945196542,-0.5944139099,3.272494812,6.633605347
2.955239542,-0.8547225952,2.943029938,6.599176941
2.965282542,-1.033001862,2.771786041,7.001390533
2.975325542,-1.005608826,2.834655304,7.79623764
2.985368542,-0.9171427917,2.963088226,8.386310577
2.995411542,-0.8629554749,3.095862122,8.441246338
3.005454542,-0.8885522461,3.321742401,7.979007568
3.015497542,-0.9183403015,3.549119568,7.457342377
3.025540542,-0.8904981995,3.832180939,7.115153961
3.035583542,-0.8346643066,4.104315033,6.991511078
3.045626542,-0.8228388977,4.309687958,7.020700378
3.055669542,-0.8493338013,4.408183136,7.034471741
3.065712542,-0.8672964478,4.490661621,7.001689911
3.075755542,-0.8744815063,4.645589447,7.060517578
3.085798542,-0.7946974182,4.789589996,7.281308441
3.095841542,-0.6239025879,4.959636383,7.580835571
3.105884542,-0.5592370605,5.132526855,7.76585083
3.115927542,-0.6010002136,5.299878845,7.849975891
3.125970542,-0.5195695496,5.444478149,7.742349701
3.136013542,-0.4399351501,5.584886169,7.495063934
3.146056542,-0.4465214539,5.738167419,7.40195755
3.156099542,-0.4803511047,5.81301178,7.601342926
3.166142542,-0.5348377991,5.773643646,8.197104034
3.176185542,-0.7006929016,5.584137726,8.991951141
3.186228542,-0.7707472229,5.230722656,9.838889923
3.196271542,-0.7023394775,4.900509338,10.60290115
3.206314542,-0.6451583862,4.649780731,10.78207855
3.216357542,-0.7527845764,4.3807901,10.63777863
3.226400542,-0.9795629883,4.168681183,10.53883438
3.236443542,-1.273851013,4.207001495,10.62146255
3.246486542,-1.390608215,4.594994659,10.78402451
3.256529542,-1.444346466,5.18117569,10.76830719
3.266572542,-1.547332306,5.689668274,10.61712158
3.276615542,-1.551972656,6.016139374,10.48838928
3.286658542,-1.547931061,5.85163147,10.52356613
3.296701542,-1.817969513,5.122797089,10.89479416
3.306743542,-2.113005981,4.063300323,11.94920151
3.316787542,-2.300565948,3.072211304,13.04641983
3.326829542,-2.286644897,2.367925873,13.33337311
3.336872542,-1.863474884,2.133962402,12.64705032
3.346915542,-1.256786499,2.348765717,11.37559433
3.356958542,-0.7717950439,2.740650787,10.13886612
3.367001542,-0.6252497864,3.18492691,9.350755005
3.377044542,-0.773890686,3.386108551,9.246122589
3.387087542,-0.8846603394,3.195704498,9.671687622
3.397130542,-1.028810577,2.791994019,10.38869659
3.407173542,-1.049018555,2.386786652,10.99433716
3.417216542,-0.9509724426,2.068548431,11.04538101
3.427259542,-0.7453001404,1.956880646,10.60514648
3.437302542,-0.4379891968,2.134860535,9.959988098
3.447345542,-0.08681945801,2.444416809,9.238787842
3.457388542,0.2052232361,2.677482147,8.619076538
3.467431542,0.3785627747,2.801424408,8.126001892
3.477474542,0.2282752991,2.75786499,7.873177643
3.487517542,0.03338058472,2.671793976,7.808811493
3.497560542,-0.3101550293,2.579735413,7.708669739
3.507603542,-0.5459147644,2.560874634,7.538623352
3.517646542,-0.4620890808,2.642604675,7.362290039
3.527689542,-0.2636018372,2.860102386,7.229516144
3.537732542,0.0375718689,3.173550568,7.047644348
3.547775542,0.3393443298,3.490142212,6.78179718
3.557818542,0.5388793945,3.743714905,6.419400787
3.567861542,0.6360273743,3.978875885,6.169720001
3.577904542,0.5119354248,4.03680542,6.110592957
3.587947542,0.2073188782,3.896098022,6.326743469
3.597990542,-0.08517288208,3.669319611,6.75605072
3.608033542,-0.2574645996,3.514391785,7.173981628
3.618076542,-0.307610321,3.495680695,7.43937973
3.628119542,-0.283510437,3.642675018,7.593559113
3.638162542,-0.1372645569,3.909719696,7.796537018
3.648205542,-0.1553768921,4.239933014,8.247698822
3.658248542,-0.2510279846,4.373605042,8.527317352
3.668291542,-0.4001179504,4.370162201,8.577612762
3.678334542,-0.4984634399,4.35743866,8.406069489
3.688376542,-0.4233197021,4.4697052,8.158334656
3.698419542,-0.2636018372,4.684508514,7.946225739
3.708462542,-0.07559280396,4.93194397,7.828720093
3.718505542,0.07259902954,5.164859619,7.894283752
3.728548542,0.2576142883,5.360951843,8.307424622
3.738591542,0.4092489624,5.465733948,8.90198822
3.748634542,0.4553530884,5.370232544,9.395661621
3.758677542,0.3342549133,5.142406311,9.636959839
3.768720542,0.1724414062,4.952900391,9.865085449
3.778763292,0.03547622681,4.850363617,10.15578094
3.788806292,-0.05882766724,4.736899567,10.33750305
3.798849292,-0.2007325745,4.644691315,10.27882507
3.808892292,-0.5087919617,4.691843262,10.20577698
3.818935292,-0.8063731384,4.787494354,10.11776001
3.828978292,-1.021176453,4.737198944,9.955796814
3.839021292,-1.180295563,4.643643494,9.79128891
3.849064292,-1.212328949,4.632865906,9.823172607
3.859107292,-0.9723779297,4.509971466,10.03393433
3.869150292,-0.7511380005,4.307442627,10.39812698
3.879193292,-0.7379653931,4.064647522,10.87308929
3.889236292,-0.7243437195,3.744762726,11.48980682
3.899279292,-0.7197033691,3.330574036,12.1536763
3.909322292,-0.8219407654,2.95560379,12.61801071
3.919365292,-1.024319916,2.661764832,12.82173706
3.929408292,-1.127455444,2.464924164,12.64091309
3.939451292,-1.000669098,2.590363312,12.0435054
3.949494292,-0.7020401001,3.047961731,11.12336884
3.959537292,-0.3089575195,3.552113342,10.27882507
3.969580292,0.1666035461,3.870201874,9.777517548
3.979623292,0.5854325867,3.919449463,9.483828278
3.989666292,0.7608677673,3.847000122,9.277407532
3.999709292,0.7786807251,3.691922607,9.073381805
4.009752292,0.8915460205,3.515439606,8.880732422
4.019795292,1.078956299,3.489094391,8.560548248
4.029838292,1.234632568,3.527115326,8.106841736
4.039881292,1.259480896,3.499422913,7.540868683
4.049924292,1.263821869,3.385809174,7.1000354
4.059967292,1.124311981,3.272045746,7.112609253
4.070010292,0.697250061,3.074905701,7.283254395
4.080052292,0.1454974365,2.768193512,7.33414856
4.090095292,-0.4162843323,2.395019531,7.151827698
4.100138292,-0.9473799133,2.175575867,7.062164154
4.110181292,-1.270857239,2.155218201,7.236401825
4.120224292,-1.240769806,2.177222443,6.998396759
4.130267292,-1.079704742,2.300865326,6.314468994
4.140310292,-0.9243278503,2.642604675,5.742059326
4.150353292,-0.8357121277,3.053799591,5.538632355
4.160396292,-0.6987469482,3.304677887,5.640869751
4.170439292,-0.6563850403,3.443289642,6.112389221
4.180482292,-0.7997868347,3.508104858,6.809040527
4.190525292,-0.9407936096,3.438200226,7.433990936
4.200568292,-0.9527687073,3.384911041,8.018824768
4.210611292,-0.9503736877,3.475472717,8.532706146
4.220654292,-0.7539820862,3.659440155,8.842412109
4.230697292,-0.4399351501,3.845353546,8.764424286
4.240740292,-0.2291734314,4.024530945,8.450227661
4.250783292,-0.04311035156,4.295766907,8.273894348
4.260826292,0.09011260986,4.623285828,8.29589859
4.270869292,-0.03742218018,4.85814743,8.456813965
4.280912292,-0.2746788025,4.881798248,8.561147003
4.290955292,-0.5468128967,4.753664703,8.774303741
4.300998292,-0.7756869507,4.676575012,9.106013947
4.311041292,-0.9940827942,4.636907501,9.332792358
4.321084292,-1.155147858,4.640500031,9.346863098
4.331127292,-1.227746887,4.665348358,9.224567413
4.341170292,-1.354832611,4.72836731,9.122629395
4.351213292,-1.428778839,4.808600464,9.103169861
4.361256292,-1.415306854,4.8160849,9.284442902
4.371299292,-1.343156891,4.696932678,9.748477936
4.381342292,-1.467697906,4.488865356,10.29394363
4.391385292,-1.837429047,4.227359161,10.72190369
4.401428292,-2.278412018,3.975433044,10.89389603
4.411471292,-2.588567047,3.93262207,10.83910995
4.421514292,-2.605481873,4.162693634,10.71621552
4.431557292,-2.292931824,4.606371002,10.6036496
4.441600292,-1.900447998,5.140460358,10.55619827
4.451643292,-1.399888916,5.569767609,10.56009018
4.461686292,-0.8948391724,5.682034149,10.66157913
4.471729292,-0.7261399841,5.304219818,11.14282837
4.481771292,-0.9428892517,4.314178619,12.13975525
4.491814292,-1.521585846,3.060236206,13.2405661
4.501857292,-2.358645172,2.015259247,13.75744125
4.511900292,-2.761008453,1.492845612,13.35088669
4.521943292,-2.441123657,1.674717407,11.96506851
4.531986292,-1.651815033,2.574795685,10.12928604
4.542029292,-0.9547146606,3.593128052,8.636590118
4.552072292,-0.6491999817,4.213138733,7.831863556
4.562115292,-0.7084767151,4.255500641,7.692653046
4.572158292,-0.9789642334,3.824397125,8.003706207
4.582201292,-1.450483704,3.165018311,8.581953735
4.592244292,-1.797162781,2.476001129,9.247619476
4.602287292,-1.985022125,1.876946869,9.821975098
4.612330292,-2.01256485,1.523232422,10.20892044
4.622373292,-1.69776947,1.361867981,10.40950333
4.632416292,-1.111139374,1.415905609,10.26205994
4.642459292,-0.6215075684,1.745669861,9.815089417
4.652502292,-0.3763174438,2.211052094,9.213640137
4.662545292,-0.3498225403,2.566413116,8.580307159
4.672588292,-0.5596861267,2.70173172,8.021070099
4.682631292,-0.630788269,2.692600708,7.611222382
4.692674292,-0.7247927856,2.692001953,7.372169495
4.702717292,-0.7557783508,2.708168335,7.155270538
4.712760292,-0.7521858215,2.727029114,6.905589752
4.722803292,-0.6929090881,2.775378571,6.760242004
4.732846292,-0.6486012268,2.872077484,6.789281616
4.742889292,-0.4375401306,3.01413208,6.971752167
4.752932292,-0.2188449097,3.161725159,7.223827972
4.762975292,-0.2281256104,3.335813141,7.45464798
4.773018292,-0.2564167786,3.419938202,7.579638062
4.783060542,-0.3279679871,3.401676178,7.60553421
4.793103542,-0.5057981873,3.366948395,7.608677673
4.803146542,-0.6310876465,3.311264191,7.566315765
4.813189542,-0.6471043396,3.310515747,7.573351135
4.823232542,-0.6502478027,3.522175598,7.678282928
4.833275542,-0.6815327454,3.759581909,7.795339508
4.843318542,-0.6033952332,3.964056702,7.909701691
4.853361542,-0.5192701721,4.15146698,7.983947296
4.863404542,-0.5535488892,4.243375854,7.990832977
4.873447542,-0.5914201355,4.265230408,8.088130646
4.883489542,-0.4676275635,4.316873016,8.155191193
4.893532542,-0.3788621521,4.381089478,8.254584503
4.903575542,-0.3480262756,4.463418274,8.551267548
4.913618542,-0.2914439392,4.546196136,8.961115265
4.923661542,-0.226179657,4.582420807,9.328451385
4.933704542,-0.1996847534,4.547693024,9.484127655
4.943747542,-0.09999206543,4.460873566,9.453591156
4.953790542,-0.1068777466,4.370760956,9.475595398
4.963833542,-0.1718426514,4.271068268,9.782307587
4.973876542,-0.1871109009,4.183350677,10.14635056
4.983919542,-0.3267704773,4.086053009,10.26430527
4.993962542,-0.7235952759,3.975882111,10.16476227
5.004005542,-1.180445251,3.944148102,9.961934052
5.014048542,-1.324445801,4.004772034,9.907896423
5.024091542,-1.144070892,4.211791534,9.985285492
5.034134542,-0.82373703,4.479285278,9.990973663
5.044177542,-0.2125579834,4.797074432,9.98199234
5.054220542,0.3592529297,5.010680237,10.04905289
5.064263542,0.5246589661,4.984185333,10.23900787
5.074306542,0.2254312134,4.507726135,10.80348404
5.084349542,-0.5098397827,3.650758209,11.82331329
5.094392542,-1.382525024,2.581082611,12.82053955
5.104435542,-2.232158203,1.738484802,13.70055954
5.114478542,-2.667303314,1.24735611,14.22686508
5.124521542,-2.572849731,1.29181366,13.98601593
5.134564542,-2.090103607,1.85808609,12.79120056
5.144607542,-1.417851562,2.688708801,11.1185788
5.154650542,-0.7994874573,3.426524506,9.785600739
5.164693542,-0.2487826538,3.697311401,9.062005463
5.174736542,0.1910028076,3.720363464,8.816965027
5.184779542,0.4153862,3.713627472,8.820856934
5.194822542,0.4555027771,3.671115875,8.790170746
5.204865542,0.4755610657,3.630400543,8.593928833
5.214908542,0.5149291992,3.658691711,8.253087616
5.224951542,0.4773573303,3.797004089,7.805368652
5.234994542,0.4023632813,3.925137634,7.308701477
5.245037542,0.2188449097,3.969894562,6.885381775
5.255080542,-0.0347277832,3.874393158,6.620432739
5.265123542,-0.2932402039,3.713178406,6.508914642
5.275166542,-0.4785548401,3.543281708,6.475833435
5.285209542,-0.843046875,3.232527924,6.48346756
5.295252542,-1.212628326,2.88195694,6.62731842
5.305294542,-1.394500122,2.595602417,7.013365631
5.315337542,-1.502874756,2.457589417,7.418722687
5.325380542,-1.327888641,2.491419067,7.597900085
5.335423542,-0.9535171509,2.648442535,7.489974518
5.345466542,-0.6216572571,2.909499664,7.140601044
5.355509542,-0.3760180664,3.216211853,6.826853485
5.365552542,-0.233664093,3.509452057,6.694977722
5.375595542,-0.2344125366,3.675756226,6.867868195
5.385638542,-0.3617976379,3.725003815,7.149582367
5.395681542,-0.5129832458,3.70329895,7.439828796
5.405724542,-0.660276947,3.651506653,7.815996552
5.415767542,-0.7740403748,3.554508362,8.262068939
5.425810542,-0.6712042236,3.50436264,8.693172455
5.435853542,-0.399818573,3.648662567,9.055868225
5.445896542,-0.1836680603,3.95253067,9.110205231
5.455939542,-0.1273851013,4.281845856,8.890462189
5.465982542,0.05897735596,4.587809601,8.604257355
5.476025542,0.264200592,4.863087158,8.457113342
5.486068542,0.2944377136,5.136418762,8.643625488
5.496111542,0.2281256104,5.189707947,9.03072052
5.506154542,0.04954696655,5.038073273,9.453291779
5.516197542,-0.2636018372,4.729564819,9.713151398
5.526240542,-0.6212081909,4.362228699,9.793234863
5.536283542,-0.9175918579,4.016447754,9.827663269
5.546326542,-0.9151968384,3.851490784,9.939331055
5.556369542,-0.8256829834,3.861070862,10.11326935
5.566412542,-0.8824150085,3.831881561,10.2479892
5.576455542,-1.043629761,3.748504944,10.31639694
5.586498542,-1.23672821,3.740122375,10.25502457
5.596541542,-1.252445526,3.932322693,10.17404297
5.606584542,-1.162632294,4.30355072,10.07629623
5.616627542,-1.099613342,4.705315247,10.0753981
5.626670542,-0.9762698364,4.925058289,10.11057495
5.636713542,-0.9520202637,4.83479599,10.3767215
5.646756542,-1.217568054,4.37031189,11.05570953
5.656799542,-1.627415771,3.53370163,11.91971283
5.666842542,-1.975891113,2.662662964,12.34108658
5.676885542,-2.099234619,2.167792053,12.25830872
5.686928542,-1.857487335,2.118694153,11.54803574
5.696971542,-1.43102417,2.53093689,10.42417282
5.707014542,-1.023421783,3.190465393,9.352700958
5.717057542,-0.7450007629,3.592828674,8.667276306
5.727099542,-0.6695576477,3.578907623,8.389304352
5.737142542,-0.9099577332,3.301235046,8.618028717
5.747185542,-1.265767822,2.821482697,9.349707184
5.757228542,-1.383423157,2.264490967,10.346185
5.767271542,-1.383123779,1.830243988,11.13399673
5.777315083,-1.405876465,1.613195343,11.48232239
5.787358083,-1.281335449,1.603465576,11.38068375
5.797401083,-0.9557624817,1.891017609,10.78447357
5.807444083,-0.527353363,2.313738556,9.987979889
5.817487083,-0.1481918335,2.687511292,9.264234924
5.827530083,-0.03517684937,2.936443634,8.718469849
5.837573083,-0.1038839722,2.980901184,8.363408203
5.847616083,-0.3375480652,2.924618225,8.072862396
5.857659083,-0.5267546082,2.868634644,7.7529776
5.867702083,-0.539178772,2.894979858,7.415579224
5.877745083,-0.3239263916,3.161276093,7.157216492
5.887788083,0.02110610962,3.554957428,7.021448822
5.897831083,0.2183958435,3.912264404,6.856791229
5.907874083,0.2559677124,4.13739624,6.567293243
5.917917083,0.3053649902,4.173022156,6.329437866
5.927960083,0.2450404358,4.220623169,6.429429932
5.938003083,0.07544311523,4.151766357,6.845863953
5.948046083,-0.1266366577,3.800746307,7.236401825
5.958089083,-0.4731660461,3.422931976,7.468119965
5.968132083,-0.9080117798,3.13702652,7.70148468
5.978175083,-1.174158325,3.085683289,8.141719208
5.988218083,-1.179247742,3.191064148,8.616831207
5.998261083,-0.8602610779,3.363355865,9.017248535
6.008304083,-0.3466790771,3.655099182,9.145082703
6.018347083,0.06930587769,3.990102539,8.855135651
6.028390083,0.2830613708,4.294120331,8.436456299
6.038433083,0.3664379883,4.530329132,8.165070648
6.048476083,0.3513194275,4.623285828,8.050858154
6.058519083,0.2856060791,4.602329407,8.071365509
6.068562083,0.2125579834,4.532724152,8.24680069
6.078605083,0.0679586792,4.485572205,8.654103699
6.088648083,0.1032852173,4.31762146,9.158404999
6.098691083,0.03128494263,4.074826355,9.927355957
6.108734083,0.02050735474,3.876039734,10.63194077
6.118777083,-0.02380050659,3.689826965,10.6500531
6.128820083,-0.1905537415,3.597768402,10.16805542
6.138863083,-0.4981640625,3.777843933,9.675579529
6.148906083,-0.6692582703,4.144730988,9.382339325
6.158949083,-0.7002438354,4.446802826,9.268126831
6.168992083,-0.7307803345,4.572990417,9.269174652
6.179035083,-0.8054750061,4.562512207,9.322463837
6.189077083,-0.8768765259,4.513114929,9.417516174
6.199121083,-0.7197033691,4.413422241,9.776918793
6.209163083,-0.4504133606,4.15266449,10.52700897
6.219206083,-0.4799020386,3.751498718,11.75595337
6.229249083,-0.757275238,3.14286438,13.06303528
6.239292083,-1.334325256,2.340532837,14.06834473
6.249335083,-1.763931885,1.644629974,14.64030533
6.259378083,-1.836381226,1.340312805,14.46217575
6.269421083,-1.482666779,1.565893707,13.67331619
6.279464083,-0.8488847351,2.277663574,12.53223907
6.289507083,-0.09819580078,3.026107178,11.17860397
6.299550083,0.3691323853,3.379821625,10.11057495
6.309593083,0.5040019226,3.42712326,9.426647186
6.319636083,0.5110372925,3.345842285,8.901389465
6.329679083,0.5692662048,3.251837769,8.40352478
6.339722083,0.4875361633,3.241808624,7.848778381
6.349765083,0.3240760803,3.197201385,7.34462677
6.359808083,0.1026864624,3.13702652,6.985523529
6.369851083,-0.07185058594,3.088078308,6.909930725
6.379894083,-0.1281335449,3.141517181,6.90588913
6.389937083,-0.01871109009,3.208278351,6.988517303
6.399980083,0.1245410156,3.19555481,6.987319794
6.410023083,0.1103205872,3.140319672,7.045399017
6.420066083,-0.06481521606,3.026256866,7.185956726
6.430109083,-0.2823129272,2.788850555,7.339237976
6.440152083,-0.5459147644,2.584076385,7.527396698
6.450195083,-0.8080197144,2.475701752,7.728728027
6.460238083,-0.835562439,2.395917664,7.844886475
6.470281083,-0.6102809143,2.502346344,7.818690948
6.480324083,-0.3725752258,2.771636353,7.713459778
6.490367083,-0.1371148682,3.096760254,7.358398132
6.500410083,0.06750961304,3.364852753,6.904242554
6.510453083,0.119002533,3.616928558,6.644682312
6.520496083,0.08113128662,3.814367981,6.696025543
6.530539083,-0.007933502197,3.904330902,6.969955902
6.540582083,-0.00419128418,3.952380981,7.266788635
6.550625083,0.004640350342,3.96076355,7.52949234
6.560668083,-0.1245410156,3.982318726,8.061635742
6.570711083,-0.2204914856,4.084107056,8.829389191
6.580754083,-0.09774673462,4.195325775,9.319320374
6.590797083,0.05328918457,4.396208038,9.341324615
6.600840083,0.2730322266,4.70142334,9.091793518
6.610883083,0.5078938293,4.962929535,8.87624176
6.620926083,0.282462616,5.07115448,9.017697601
6.630969083,-0.1324745178,4.959636383,9.324260101
6.641012083,-0.5532495117,4.634063416,9.533375244
6.651055083,-1.058299255,4.33753006,9.873617706
6.661098083,-1.394649811,4.094884644,10.44947021
6.671141083,-1.446741486,3.854484558,10.81740509
6.681183083,-1.22160965,3.663182373,10.82054855
6.691226083,-1.093176727,3.533402252,10.63703018
6.701269083,-1.056802368,3.490142212,10.6647226
6.711312083,-1.125958557,3.532204742,10.76501404
6.721355083,-1.103654938,3.66827179,10.78327606
6.731398083,-0.96414505,3.968247986,10.71292236
6.741441083,-0.8707392883,4.420906677,10.54467224
6.751484083,-0.8331674194,4.757706299,10.40171951
6.761527083,-0.830173645,4.607119446,10.39318726
6.771570083,-1.044677582,4.118535461,10.77204941
6.781613167,-1.39360199,3.529210968,11.28054199
6.791656167,-1.640588379,2.996319122,11.19042938
6.801699167,-1.609902191,2.786305847,10.43809387
6.811742167,-1.260828094,3.023412781,9.375004578
6.821785167,-0.8499325562,3.556154938,8.589138794
6.831828167,-0.4577481079,4.027824097,7.97646286
6.841871167,-0.3144960022,4.217330017,7.654781799
6.851914167,-0.5959107971,4.010310516,7.788753204
6.861957167,-0.9666897583,3.549568634,8.298443298
6.872000167,-1.176403656,3.006947021,9.054371338
6.882043167,-1.169817352,2.555036774,9.807305603
6.892086167,-1.173858948,2.334395599,10.35486694
6.902129167,-1.12565918,2.272873535,10.58404037
6.912172167,-0.959355011,2.260000305,10.44722488
6.922215167,-0.6734495544,2.411634979,10.08258316
6.932258167,-0.4082011414,2.700833588,9.727521515
6.942301167,-0.29368927,2.911595306,9.477092285
6.952344167,-0.4138893127,2.931952972,9.153465271
6.962387167,-0.712817688,2.794538727,8.765771484
6.972430167,-0.966839447,2.60697876,8.419840851
6.982473167,-1.048120422,2.543361053,8.093818817
6.992516167,-0.8906478882,2.809058533,7.661368103
7.002559167,-0.6613247681,3.22594162,7.077282715
7.012602167,-0.3216810608,3.67051712,6.589596863
7.022645167,0.08696914673,4.07886795,6.425687714
7.032688167,0.1938468933,4.309987335,6.474935303
7.042731167,0.2573149109,4.35743866,6.719227295
7.052774167,0.2585124207,4.227359161,7.062912598
7.062817167,-0.03981719971,3.984564056,7.374414825
7.072860167,-0.3592529297,3.696113892,7.64999176
7.082903167,-0.616867218,3.422931976,7.986192627
7.092946167,-0.7818241882,3.320245514,8.444988556
7.102989167,-0.94543396,3.421435089,9.027577057
7.113032167,-0.8797206116,3.538491669,9.649982758
7.123075167,-0.7089257812,3.629502411,10.05249573
7.133118167,-0.3866459656,3.758683777,9.857750702
7.143161167,-0.1161584473,3.978726196,9.214238892
7.153204167,-0.03996688843,4.310735779,8.691825256
7.163247167,-0.003592529297,4.575984192,8.424032135
7.173289167,0.03263214111,4.646637268,8.271649017
7.183332167,-0.02080673218,4.569996643,8.220455475
7.193375167,-0.1363664246,4.499642944,8.670120392
7.203418167,-0.2213896179,4.36671936,9.589059448
7.213461167,-0.3544628906,4.1432341,10.46069687
7.223504167,-0.576151886,3.946543121,11.16528168
7.233547167,-0.7622149658,3.837569733,11.38861725
7.243590167,-1.156644745,3.864513702,11.20030884
7.253633167,-1.506616974,4.042343903,10.78986237
7.263676167,-1.540296936,4.220323792,10.38315811
7.273719167,-1.296753387,4.443359985,10.11776001
7.283762167,-1.11039093,4.651726685,9.941875763
7.293805167,-0.9626481628,4.659959564,9.769434357
7.303848167,-0.7444020081,4.533622284,9.892328796
7.313891167,-0.3646417236,4.378993835,10.36384827
7.323934167,0.00628692627,4.114942932,11.10750183
7.333977167,0.08831634521,3.73488327,11.76238998
7.344020167,-0.07619155884,3.277135162,12.29647934
7.354063167,-0.4373904419,2.801723785,12.35979767
7.364106167,-0.8761280823,2.548151093,11.7688266
7.374149167,-1.235530701,2.699636078,10.75633209
7.384192167,-1.142274628,3.030298462,9.661508789
7.394235167,-0.7207511902,3.329526215,8.785530396
7.404278167,-0.2269281006,3.525319061,8.237969055
7.414321167,0.1704954529,3.656446381,8.115523682
7.424364167,0.3457809448,3.593128052,8.210725708
7.434407167,0.6765930176,3.461701355,8.328381042
7.444450167,1.086291046,3.47637085,8.434510345
7.454493167,1.330732727,3.547922058,8.347990265
7.464536167,1.335672455,3.660637665,8.162076874
7.474579167,1.156644745,3.753893738,8.127498779
7.484622167,0.8705895996,3.722459106,8.049660645
7.494665167,0.4352947998,3.560645599,7.738008728
7.504708167,-0.05942642212,3.285068665,7.347470856
7.514751167,-0.4363426208,3.040177917,7.062313843
7.524794167,-0.5545967102,2.861150208,6.960675201
7.534837167,-0.6204597473,2.788401489,6.935228119
7.544880167,-0.664019165,2.813249817,6.925498352
7.554923167,-0.6966513062,2.904260559,6.969357147
7.564966167,-0.7077282715,2.994373169,7.125332794
7.575009167,-0.509690094,3.09840683,7.11874649
7.585052167,-0.4537065125,3.256178741,6.880891113
7.595095167,-0.3932322693,3.457210693,6.654561768
7.605138167,-0.2989283752,3.676953735,6.628366241
7.615181167,-0.2773731995,3.83083374,6.818770294
7.625224167,-0.3957769775,3.908222809,7.118896179
7.635267167,-0.5514532471,3.936064911,7.424710236
7.645310167,-0.5129832458,3.94205246,7.656877441
7.655353167,-0.5101391602,3.982618103,7.765401764
7.665396167,-0.4429289246,4.037703552,7.940836945
7.675439167,-0.2758763123,4.160747681,8.180638275
7.685482167,-0.04595443726,4.33872757,8.44798233
7.695525167,-0.1787283325,4.51536026,8.787775726
7.705568167,-0.3598516846,4.467010803,9.104367371
7.715611167,-0.5038522339,4.328548737,9.375154266
7.725653167,-0.6599775696,4.290378113,9.661209412
7.735696167,-0.652792511,4.348756714,9.977801056
7.745739167,-0.5592370605,4.442312164,10.18497025
7.755782167,-0.5589376831,4.528832245,10.18092865
7.765825167,-0.4742138672,4.544100494,10.08452911
7.775867792,-0.3875440979,4.484823761,10.12180161
7.785910792,-0.5421725464,4.285288696,10.36759048
7.795953792,-0.8876541138,3.896247711,10.66247726
7.805996792,-1.309476929,3.618275757,10.88371719
7.816039792,-1.561702423,3.669169922,10.86216202
7.826082792,-1.568737793,3.977678375,10.4934787
7.836125792,-1.632654877,4.534221039,10.02121078
7.846168792,-1.581161957,5.100792847,9.810898132
7.856211792,-1.333726501,5.337600403,9.938283234
7.866254792,-1.318907318,5.085374908,10.49931656
7.876297792,-1.510059814,4.439019012,11.3654155
7.886340792,-1.829196167,3.622167664,12.09140579
7.896383792,-1.963317261,3.14750473,12.33000961
7.906426792,-1.822310486,3.215164032,11.87241119
7.916469792,-1.340761871,3.564986572,10.74750046
7.926512792,-0.9286688232,4.014352112,9.480834503
7.936555792,-0.6818321228,4.294569397,8.791218567
7.946598792,-0.5590873718,4.191882935,8.742569733
7.956641792,-0.7773335266,3.762575684,9.168583832
7.966684792,-1.042282562,3.158881073,9.925260315
7.976727792,-1.136586456,2.633922729,10.57086777
7.986770792,-1.243464203,2.272873535,10.78028229
7.996813792,-1.323996735,2.099234619,10.50051407
8.006856792,-1.267564087,2.090402985,9.92705658
8.016899792,-0.9960287476,2.258054352,9.425150299
8.026942792,-0.6508465576,2.498005371,8.864116974
8.036985792,-0.489332428,2.702330475,8.239465942
8.047028792,-0.386945343,2.839595032,7.751929779
8.057071792,-0.4067042542,2.87252655,7.444169769
8.067114792,-0.4966671753,2.813848572,7.175628204
8.077157792,-0.60025177,2.766546936,6.919061737
8.087200792,-0.6460565186,2.80935791,6.802005157
8.097243792,-0.4230203247,2.902015228,6.75260788
8.107286792,-0.08337661743,3.153641968,6.799011383
8.117329792,0.2243833923,3.496279449,6.958280182
8.127372792,0.4409829712,3.706741791,7.111411743
8.137415792,0.4900808716,3.763623505,7.235204315
8.147458792,0.3799099731,3.663631439,7.270979919
8.157501792,0.2010319519,3.473377075,7.263196106
8.167544792,0.02245330811,3.343896332,7.424859924
8.177587792,-0.2212399292,3.247945862,7.785909119
8.187630792,-0.4388873291,3.182831268,8.21521637
8.197673792,-0.5869294739,3.184178467,8.601562958
8.207716792,-0.616867218,3.262765045,8.890462189
8.217759792,-0.4249662781,3.4810112,8.953630829
8.227802792,-0.3281176758,3.790717163,8.844807129
8.237845792,-0.1713935852,4.00058075,8.645421753
8.247888792,-0.01287322998,4.204456787,8.497678986
8.257931792,0.09265731812,4.410428467,8.569379883
8.267974792,0.1618135071,4.552632751,8.841813354
8.278017792,-0.08726852417,4.539460144,9.181457062
8.288060792,-0.3356021118,4.332141266,9.544751587
8.298103792,-0.4695735168,4.095633087,9.869576111
8.308146792,-0.5155279541,3.995491333,10.04800507
8.318188792,-0.5423222351,4.027973785,10.11237122
8.328231792,-0.6042933655,4.195325775,10.19904099
8.338274792,-0.6237528992,4.391717377,10.2678978
8.348317792,-0.8138575745,4.521347809,10.38555313
8.358360792,-1.044827271,4.505780182,10.51877609
8.368403792,-1.156794434,4.387077026,10.56368271
8.378446792,-1.07057373,4.177662506,10.40097107
8.388489792,-1.014590149,3.982169037,10.2559227
8.398532792,-0.7496411133,3.926335144,10.43704605
8.408575792,-0.4345463562,3.789070587,11.1557016
8.418618792,-0.3619473267,3.55705307,12.20876175
8.428661792,-0.6262976074,3.170407104,13.03953415
8.438704792,-0.9144483948,2.737357635,13.22215439
8.448747792,-1.157393188,2.526895294,12.73776169
8.458790792,-1.257085876,2.596650238,11.84142563
8.468833792,-1.098415833,2.930905151,10.85377945
8.478876792,-0.5528004456,3.302432556,10.06372238
8.488919792,0.05044509888,3.49268692,9.536818085
8.498962792,0.5195695496,3.522325287,9.219927063
8.509005792,0.8164022827,3.49268692,9.08221344
8.519048792,0.9758207703,3.467988281,8.941955109
8.529091792,1.025517426,3.401975555,8.746012573
8.539134792,0.9547146606,3.362308044,8.611741791
8.549177792,0.9485774231,3.397784271,8.490344238
8.559220792,1.069974976,3.495830383,8.29829361
8.569263792,1.124012604,3.558400269,7.989485779
8.579306792,0.9618997192,3.528761902,7.696395264
8.589349792,0.6900650024,3.367098083,7.570357361
8.599392792,0.3782633972,3.160976715,7.482340393
8.609435792,0.04326004028,2.937940521,7.380402374
8.619478792,-0.2568658447,2.7789711,7.24044342
8.629521792,-0.610430603,2.680176544,7.154073029
8.639564792,-0.7288343811,2.637664948,7.143145752
8.649607792,-0.6737489319,2.700983276,7.176825714
8.659650792,-0.4761598206,2.911744995,7.150031433
8.669693792,-0.2971321106,3.210972748,6.997348938
8.679736792,-0.1148112488,3.501817932,6.766828308
8.689779792,0.05089416504,3.697910156,6.559210052
8.699822792,0.04370910645,3.819756775,6.441854095
8.709865792,-0.01242416382,3.869303741,6.420448608
8.719908792,-0.03652404785,3.911965027,6.51265686
8.729951792,-0.1390608215,3.896547089,6.660699005
8.739994792,-0.3192860413,3.923191681,6.957681427
8.750037792,-0.482895813,4.006568298,7.248526611
8.760080792,-0.5077441406,4.052522736,7.516918488
8.770123792,-0.3920347595,4.205654297,7.938741302
8.780166708,-0.3165916443,4.390370178,8.264613647
8.790209708,-0.1992356873,4.536616058,8.501121826
8.800252708,-0.119002533,4.65457077,8.73942627
8.810295708,-0.1592687988,4.703818359,8.876092072
8.820338708,-0.2935395813,4.721182251,9.049132233
8.830381708,-0.3826043701,4.817432098,9.341324615
8.840424708,-0.5891748047,4.857099609,9.595945129
8.850467708,-0.975970459,4.774920502,9.971364441
8.860510708,-1.274898834,4.614304504,10.45470932
8.870553708,-1.317410431,4.369264069,10.78582077
8.880596708,-1.456022186,4.127666473,10.9459877
8.890639708,-1.511257324,3.979774017,10.92682755
8.900682708,-1.439855804,4.012106781,10.78626984
8.910725708,-1.289718018,4.285737762,10.56847275
8.920768708,-1.112486572,4.74124054,10.34094589
8.930811708,-0.9220825195,5.141208801,10.10234207
8.940854708,-0.5897735596,5.367089081,10.03842499
8.950897708,-0.3507206726,5.219046936,10.47791107
8.960940708,-0.5899232483,4.562512207,11.53621033
8.970982708,-1.266516266,3.573518829,12.65109192
8.981025708,-2.046095123,2.70756958,13.03414536
8.991068708,-2.449356537,2.36702774,12.47835114
9.001111708,-2.173480225,2.646496582,10.90961334
9.011154708,-1.665137329,3.462749176,9.092092896
9.021197708,-1.135987701,4.258344727,7.859256592
9.031240708,-0.7137158203,4.574786682,7.310797119
9.041283708,-0.7212002563,4.282743988,7.36453537
9.051326708,-1.086740112,3.628005524,7.940088501
9.061369708,-1.455722809,2.901117096,8.866661682
9.071412708,-1.666933594,2.3927742,9.65911377
9.081455708,-1.783391418,2.1857547,10.0276474
9.091498708,-1.602717133,2.229763184,9.978100433
9.101541708,-1.171014862,2.531236267,9.617200928
9.111584708,-0.6816824341,2.975063324,9.179660797
9.121627708,-0.4849914551,3.246898041,9.025331726
9.131670708,-0.5547463989,3.21187088,9.158704376
9.141713708,-0.692460022,2.963986359,9.295669556
9.151756708,-0.8574169922,2.712958374,9.226363678
9.161799708,-0.9369017029,2.570604401,8.988059235
9.171842708,-0.8105644226,2.611319733,8.635542297
9.181885708,-0.4231700134,2.851719818,8.240663452
9.191928708,-0.02544708252,3.206931152,7.860005035
9.201971708,0.1923500061,3.576213226,7.633376312
9.212014708,0.2769241333,3.836372223,7.457342377
9.222057708,0.2718347168,3.902983704,7.271878052
9.232100708,0.1499880981,3.856280823,7.133116608
9.242143708,-0.1233435059,3.723806305,7.120991821
9.252186708,-0.4406835938,3.489842834,7.300019531
9.262229708,-0.6807843018,3.323388977,7.566166077
9.272272708,-0.8057743835,3.258124695,7.743696899
9.282315708,-0.6945556641,3.359613647,7.836653595
9.292358708,-0.5047503662,3.629352722,8.031997375
9.302401708,-0.2833607483,3.875740356,8.317453766
9.312444708,-0.1013392639,4.035308533,8.494984589
9.322487708,-0.1020877075,4.17257309,8.568182373
9.332530708,-0.1989363098,4.252955933,8.572373657
9.342573708,-0.2148033142,4.25909317,8.460256805
9.352616708,-0.2276765442,4.304299164,8.265661469
9.362659708,-0.2697390747,4.378544769,8.211923218
9.372702708,-0.3219804382,4.387077026,8.235723724
9.382745708,-0.3568579102,4.334985352,8.566984863
9.392788708,-0.4355941772,4.309538269,9.251062317
9.402831708,-0.4578977966,4.193080444,9.924062805
9.412874708,-0.4950205994,4.028273163,10.33226395
9.422917708,-0.7051835632,3.991449738,10.56922119
9.432960708,-0.9445358276,4.010160828,10.52341644
9.443003708,-1.293909302,4.084256744,10.17299515
9.453046708,-1.519190826,4.270319824,9.727970581
9.463089708,-1.407822418,4.480183411,9.579030304
9.473132708,-1.080902252,4.583768005,9.649234314
9.483175708,-0.770148468,4.596192169,9.846074982
9.493218708,-0.5728587341,4.556225281,10.42776535
9.503261708,-0.2956352234,4.382137299,11.24356888
9.513304708,-0.06466552734,4.256548462,11.80609909
9.523347708,0.07813751221,4.164190521,12.06446182
9.533390708,0.116308136,4.091142426,12.05533081
9.543433708,0.03098556519,3.927083588,11.91297684
9.553476708,-0.2534230042,3.642974396,11.63530426
9.563519708,-0.583636322,3.477268982,10.97951797
9.573562708,-0.7982899475,3.525917816,10.11761032
9.583605708,-0.7614665222,3.710633698,9.456435242
9.593648708,-0.6469546509,3.719016266,8.976832581
9.603691708,-0.4731660461,3.535797272,8.670569458
9.613734708,-0.305514679,3.329975281,8.863218842
9.623777708,-0.1134640503,3.168760529,9.344019012
9.633820708,0.06047424316,3.043620758,9.60058548
9.643863708,0.1520837402,3.048410797,9.480834503
9.653906708,0.1104702759,3.155587921,8.986412659
9.663949708,0.1447489929,3.336860962,8.328530731
9.673992708,0.1507365417,3.583248596,7.632627869
9.684035708,0.1065783691,3.743565216,6.991511078
9.694078708,0.03053649902,3.770359497,6.579567719
9.704121708,-0.3110531616,3.719165955,6.454278259
9.714164708,-0.6875202942,3.544479218,6.434070282
9.724207708,-0.9651928711,3.320245514,6.43197464
9.734250708,-1.151854706,3.159629517,6.522686005
9.744292708,-1.068927155,3.105891266,6.649771729
9.754335708,-0.9803114319,3.130589905,6.732100525
9.764378708,-0.7816744995,3.179837494,6.819069672
9.774421708,-0.563278656,3.293600922,6.922504578
9.784464833,-0.4194277954,3.393443298,6.989116058
9.794507833,-0.266894989,3.433410187,7.002438354
9.804550833,-0.286204834,3.504811707,7.140002289
9.814593833,-0.4746629333,3.627556458,7.518864441
9.824636833,-0.6162684631,3.660937042,7.895181885
9.834679833,-0.6800358582,3.675307159,8.153394928
9.844722833,-0.6801855469,3.748804321,8.492140503
9.854765833,-0.5760021973,3.850442963,8.906927948
9.864808833,-0.3535647583,3.966451721,9.071136475
9.874851833,-0.2758763123,4.070186005,9.04598877
9.884894833,-0.3035687256,4.222718811,9.080566864
9.894937833,-0.2103126526,4.377496948,9.236243134
9.904980833,-0.1706451416,4.529880066,9.298214264
9.915023833,-0.1115180969,4.688101044,9.251062317
9.925066833,-0.1263372803,4.896617432,9.263636169
9.935109833,-0.1881587219,5.034031677,9.094936981
9.945152833,-0.2029779053,5.00214798,8.796008606
9.955195833,-0.2246827698,4.944667511,8.692124634
9.965238833,-0.2609074402,4.844076691,8.80259491
9.975281833,-0.3246748352,4.58316925,9.082063751
9.985324833,-0.4999603271,4.185895386,9.597292328
9.995367833,-0.8497828674,3.622916107,10.22927811
10.00541083,-1.379980316,3.272644501,10.70139633
10.01545383,-1.983824615,3.242856445,10.75244019
10.02549683,-2.181563416,3.496129761,10.43794418
10.03553983,-1.982776794,4.095633087,10.05653732
10.04558283,-1.724563751,4.933590546,9.923164673
10.05562583,-1.374142456,5.532495117,10.21071671
10.06566883,-1.048569489,5.478457489,10.89389603
10.07571183,-1.228944397,4.857848053,11.78155014
10.08575483,-1.760788422,4.018992462,12.39587265
10.09579783,-2.261497192,3.360960846,12.48134491
10.10584083,-2.402354279,3.259172516,11.97539703
10.11588383,-2.054777069,3.59447525,10.55919205
10.12592683,-1.623673553,4.238585815,8.968450012
10.13596983,-1.113235016,4.737198944,7.881111145
10.14601283,-0.8282276917,4.701722717,7.422464905
10.15605583,-0.9268725586,4.221521301,7.520511017
10.16609883,-1.197659454,3.524570618,8.113577728
10.17614183,-1.38072876,2.891836395,9.086704102
10.18618483,-1.437311096,2.375559998,9.868378601
10.19622783,-1.576671295,2.027384033,10.15533188
10.20627083,-1.607058105,1.841919708,10.06102798
10.21631383,-1.418749695,1.976040802,9.76673996
10.22635683,-1.135388947,2.336341553,9.368567963
10.23639983,-0.9297166443,2.648442535,9.213041382
10.24644283,-0.8907975769,2.755769348,9.245224457
10.25648583,-1.13029953,2.631078644,9.218579865
10.26652883,-1.339115295,2.510429535,9.098379822
10.27657183,-1.419647827,2.52030899,8.74526413
10.28661483,-1.183738403,2.709515533,8.194409637
10.29665783,-0.692460022,3.125051422,7.673792267
10.30670083,-0.06616241455,3.597019958,7.165299683
10.31674383,0.3073109436,3.955674133,6.797664185
10.32678683,0.3623963928,4.05791153,6.700665894
10.33682983,0.1577719116,3.816014557,7.034471741
10.34687283,-0.2665956116,3.439248047,7.684270477
10.35691583,-0.6483018494,3.090473328,8.182284851
10.36695883,-0.9208850098,2.908900909,8.363408203
10.37700183,-0.987197113,2.965782623,8.343798981
10.38704483,-0.8184979248,3.210823059,8.276888123
10.39708783,-0.5367837524,3.534150696,8.164920959
10.40713083,-0.2927911377,3.805835724,8.060887299
10.41717383,-0.1613644409,3.914210358,8.035889282
10.42721683,-0.1667532349,3.970643005,8.130193176
10.43725983,-0.2338137817,4.02153717,8.216264191
10.44730283,-0.2878514099,4.123624878,8.142916718
10.45734583,-0.3089575195,4.3316922,7.916287994
10.46738883,-0.2531236267,4.528083801,7.646997986
10.47743183,-0.2499801636,4.66160614,7.43937973
10.48747483,-0.3838018799,4.641996918,7.605683899
10.49751783,-0.5553451538,4.564158783,8.172854462
10.50756083,-0.5700146484,4.429438934,8.948391724
10.51760383,-0.3974235535,4.328848114,9.546248474
10.52764683,-0.3344046021,4.321962433,9.863887939
10.53768983,-0.116308136,4.282594299,9.936486969
10.54773283,-0.2622546387,4.257446594,10.19589752
10.55777583,-0.7072792053,4.111949158,10.65678909
10.56781883,-1.024170227,3.837270355,11.10615463
10.57786183,-1.385518799,3.647015991,11.3984967
10.58790483,-1.520238647,3.719465332,11.45238464
10.59794783,-1.13269455,3.989803162,11.30509094
10.60799083,-0.5099894714,4.312082977,11.03325623
10.61803383,0.1209484863,4.558171234,10.82563797
10.62807683,0.8388555908,4.770878906,10.83596649
10.63811983,1.314716034,5.036277008,10.7615712
10.64816283,1.4040802,5.024451599,10.46249313
10.65820583,0.7899073792,4.678520966,10.02540207
10.66824883,-0.3709286499,4.109703827,9.82871109
10.67829183,-1.235231323,3.460054779,10.031689
10.68833483,-1.764081573,2.960244141,10.23751099
10.69837783,-1.871408386,2.905907135,10.11611343
10.70842083,-1.504820709,3.178190918,9.51391571
10.71846383,-0.8713380432,3.606600037,8.811276855
10.72850683,-0.001197509766,3.915258179,8.504714355
10.73854983,0.7201524353,3.93037674,8.748856659
10.74859283,0.9714797974,3.722309418,9.406888275
10.75863483,0.90681427,3.428171082,10.04306534
10.76867783,0.807121582,3.151845703,10.19410126
10.77872096,0.735869751,3.109184418,9.960137787
10.78876396,0.6985972595,3.379522247,9.239685974
10.79880696,0.6818321228,3.757785645,8.278235321
10.80884996,0.6511459351,4.032015381,7.580087128
10.81889296,0.6053411865,4.148622894,7.445666656
10.82893596,0.4870870972,4.115691376,7.644752655
10.83897896,0.08831634521,3.914509735,7.717351685
10.84902196,-0.2447410583,3.5301091,7.604187012
10.85906496,-0.4912783813,3.13582901,7.428452454
10.86910796,-0.7554789734,2.837649078,7.430697784
10.87915096,-0.9816586304,2.611768799,7.599396973
10.88919396,-1.098565521,2.482138367,7.863148499
10.89923696,-1.001866608,2.490670624,8.095764771
10.90927996,-0.7625143433,2.718047791,8.146060181
10.91932296,-0.4818479919,3.041525116,7.951015778
10.92936596,-0.3164419556,3.330274658,7.615263977
10.93940896,-0.1239422607,3.506607971,7.322023773
10.94945196,-0.06107299805,3.63189743,7.121889954
10.95949496,-0.1279838562,3.739523621,6.983727264
10.96953796,-0.2531236267,3.816014557,6.821913757
10.97958096,-0.3793112183,3.825894012,6.669680328
10.98962396,-0.397124176,3.854634247,6.638245697
10.99966696,-0.3556604004,3.990551605,6.828500061
11.00970996,-0.2772235107,4.134851532,7.150330811
11.01975296,-0.2429447937,4.209845581,7.616012421
11.02979596,-0.2712359619,4.247118073,8.133186951
11.03983896,-0.3445834351,4.281247101,8.402626648
11.04988196,-0.384250946,4.435426483,8.543034668
11.05992496,-0.2655477905,4.659510498,8.516689453
11.06996796,-0.1652563477,4.87805603,8.380323029
11.08001096,-0.1460961914,5.007387085,8.293802948
11.09005396,-0.2679428101,4.998405762,8.5147435
11.10009696,-0.4942721558,4.885839844,8.919651489
11.11013996,-0.8659492493,4.719685364,9.444609833
11.12018296,-1.178798676,4.576283569,10.11611343
11.13022596,-1.204994202,4.504133606,10.50216064
11.14026896,-1.031654663,4.563110962,10.39004379
11.15031196,-0.7967930603,4.709506531,9.987530823
11.16035496,-0.7783813477,4.810546417,9.868677979
11.17039796,-0.9168434143,4.686903534,10.11716125
11.18044096,-1.216969299,4.493655396,10.52476364
11.19048396,-1.637594604,4.41357193,10.83372116
11.20052696,-1.899400177,4.491859131,10.88192093
11.21056996,-1.920506287,4.840783539,10.67310516
11.22061296,-1.781146088,5.267845459,10.39618103
11.23065596,-1.534159698,5.459447021,10.20607635
11.24069896,-1.368454285,5.272635498,10.39947418
11.25074196,-1.272204437,4.905898132,11.03699844
11.26078496,-1.369352417,4.417912903,11.67871399
11.27082796,-1.623972931,3.824397125,11.88154221
11.28087096,-1.863774261,3.327131195,11.74188263
11.29091396,-1.971400452,3.115022278,11.2765004
11.30095696,-2.001188507,3.170556793,10.45485901
11.31099996,-2.04878952,3.345991974,9.655072174
11.32104296,-2.016456757,3.429967346,9.173822937
11.33108596,-1.863325195,3.399281158,9.087302856
11.34112896,-1.634151764,3.298989716,9.336534576
11.35117196,-1.42518631,3.102149048,9.848020935
11.36121496,-1.282682648,2.799927521,10.31385223
11.37125796,-1.348845062,2.543211365,10.49527496
11.38130096,-1.377285919,2.374512177,10.445728
11.39134396,-1.232686615,2.316432953,10.27253815
11.40138696,-1.088087311,2.365530853,10.01462448
11.41142996,-1.021775208,2.506238251,9.583970032
11.42147296,-0.9315129089,2.667303314,8.823251953
11.43151596,-0.8710386658,2.8081604,8.050109711
11.44155896,-0.6951544189,2.935844879,7.455695801
11.45160196,-0.5234614563,3.070415039,7.039710846
11.46164496,-0.4150868225,3.180436249,6.859785004
11.47168796,-0.3977229309,3.30782135,6.895560608
11.48173096,-0.3516188049,3.395688629,6.899302826
11.49177396,-0.282462616,3.440744934,6.824009399
11.50181696,-0.2219883728,3.51723587,6.677913208
11.51185996,-0.2279759216,3.610491943,6.636150055
11.52190296,-0.1628613281,3.602558441,6.624923401
11.53194596,-0.02634521484,3.546425171,6.597230988
11.54198896,0.009879455566,3.572920074,6.798412628
11.55203196,-0.07170089722,3.641178131,7.156018982
11.56207496,-0.1020877075,3.66587677,7.3575
11.57211796,-0.1549278259,3.673061829,7.452851715
11.58216096,-0.3504212952,3.650159454,7.562124481
11.59220396,-0.4593946838,3.6296521,7.868986359
11.60224696,-0.5569917297,3.686533813,8.180787964
11.61228996,-0.6894662476,3.756139069,8.441246338
11.62233296,-0.6809339905,3.869902496,8.698261871
11.63237596,-0.5004093933,4.150419159,8.849148102
11.64241896,-0.3261717224,4.439617767,8.661438446
11.65246196,-0.1922003174,4.667743378,8.224646759
11.66250496,-0.03592529297,4.863985291,7.986192627
11.67254796,0.07574249268,5.069208527,8.151748352
11.68259096,-0.004640350342,5.156177673,8.522377625
11.69263396,-0.1333726501,5.07818985,8.898246002
11.70267696,-0.2189945984,4.908891907,9.121282196
11.71271996,-0.2686912537,4.742288361,9.377848663
11.72276296,-0.3442840576,4.64289505,9.966724091
11.73280596,-0.4210743713,4.402794342,10.62206131
11.74284896,-0.6075865173,4.157903595,11.1052565
11.75289196,-0.8934919739,4.091292114,11.29116989
11.76293496,-1.064436493,4.258644104,11.1251651
11.77297796,-0.8815168762,4.569846954,10.87713089
11.78302129,-0.4284091187,4.898563385,10.67190765
11.79306429,0.1305285645,5.112917633,10.53584061
11.80310729,0.4888833618,5.136418762,10.46384033
11.81315029,0.6596781921,4.875511322,10.60349991
11.82319329,0.6641688538,4.440216522,11.02711899
11.83323629,0.4665797424,3.958518219,11.73080566
11.84327929,0.1487905884,3.515888672,12.45005997
11.85332229,-0.2788700867,3.135529633,12.7509343
11.86336529,-0.7153623962,2.880909119,12.55439301
11.87340829,-0.8656498718,2.844834137,12.07748474
11.88345129,-0.7098239136,2.998265076,11.46331192
11.89349429,-0.3010240173,3.286266174,10.65439407
11.90353729,0.1908531189,3.591331787,9.900262299
11.91358029,0.7777825928,3.753145294,9.470356293
11.92362329,1.224902802,3.726949768,9.28459259
11.93366629,1.449585571,3.549119568,9.354048157
11.94370929,1.567091217,3.331472168,9.612710266
11.95375229,1.553319855,3.080593872,9.711804199
11.96379529,1.380130005,2.949316864,9.568402405
11.97383829,1.109043732,2.915038147,9.173822937
11.98388129,0.8321195984,2.962938538,8.487949219
11.99392429,0.6134243774,3.055446167,7.695347443
12.00396729,0.4549040222,3.158581696,6.996600494
12.01401029,0.2773731995,3.253933411,6.520440674
12.02405329,0.09370513916,3.232827301,6.177204437
12.03409629,-0.136665802,3.183579712,6.017037506
12.04413929,-0.3776646423,3.085383911,6.078709259
12.05418229,-0.6556365967,2.968926086,6.231092377
12.06422529,-0.9038204956,2.880909119,6.360423431
12.07426829,-0.98989151,2.855761414,6.469696198
12.08431129,-0.876277771,2.983296204,6.639592896
12.09435429,-0.5162763977,3.231480103,6.744674377
12.10439729,-0.05448669434,3.54537735,6.801556091
12.11444029,0.2471360779,3.875890045,6.911577301
12.12448329,0.3311114502,4.059258728,7.075785828
12.13452629,0.04715194702,4.005819855,7.264992371
12.14456829,-0.3182382202,3.834725647,7.345075836
12.15461129,-0.6468049622,3.794459381,7.399712219
12.16465429,-0.8631051636,3.846401367,7.680827637
12.17469729,-1.041234741,3.936813354,7.958200836
12.18474029,-1.020128632,4.025279388,8.011340332
12.19478329,-0.8446934509,4.199217682,7.825426941
12.20482629,-0.722996521,4.409380646,7.718399506
12.21486929,-0.5505551147,4.654421082,7.851772156
12.22491229,-0.2938389587,4.92610611,8.112829285
12.23495529,-0.03802093506,5.251529388,8.374784546
12.24499829,0.1450483704,5.483846283,8.445138245
12.25504129,0.173638916,5.618266754,8.487350464
12.26508429,0.08397537231,5.624254303,8.606352997
12.27512729,-0.1016386414,5.524860992,8.722062378
12.28517029,-0.3237767029,5.39523056,8.841364288
12.29521329,-0.5942642212,5.286556549,8.951684875
12.30525629,-0.8376580811,5.140310669,8.997789001
12.31529929,-0.9776170349,4.928650818,9.054371338
12.32534229,-1.18059494,4.687951355,9.264983368
12.33538529,-1.278341675,4.388873291,9.643546143
12.34542829,-1.535806274,4.093088379,10.16281631
12.35547129,-1.848356323,4.048780518,10.62730042
12.36551429,-1.848655701,4.264032898,10.82743423
12.37555729,-1.546583862,4.636308746,10.59676392
12.38560029,-1.268162842,5.065466309,10.11506561
12.39564329,-1.015039215,5.300926666,9.828561401
12.40568629,-0.785716095,5.304219818,10.13123199
12.41572929,-0.5950126648,4.954996033,10.94434113
12.42577229,-0.6078858948,4.335883484,11.91641968
12.43581529,-0.8997789001,3.641926575,12.66351608
12.44585829,-1.257235565,3.076701965,13.00420761
12.45590129,-1.32923584,2.854563904,12.84598663
12.46594429,-1.128203888,2.996319122,12.00293976
12.47598729,-0.7616162109,3.492986298,10.67056046
12.48603029,-0.4032614136,4.104315033,9.674831085
12.49607329,-0.1354682922,4.407883759,9.295819244
12.50611629,-0.17902771,4.207001495,9.351952515
12.51615929,-0.5013075256,3.711681519,9.569450226
12.52620229,-0.7442523193,3.120261383,9.822424164
12.53624529,-0.7836204529,2.720293121,9.981692963
12.54628829,-0.6676116943,2.57180191,9.973160706
12.55633129,-0.4748126221,2.619103546,9.760453033
12.56637429,-0.09071136475,2.85965332,9.388476563
12.57641729,0.3091072083,3.153192902,8.921597443
12.58646029,0.4860392761,3.335663452,8.388705597
12.59650329,0.3189866638,3.256029053,7.869136047
12.60654629,0.005837860107,2.973117371,7.533533936
12.61658929,-0.2697390747,2.689906311,7.452552338
12.62663229,-0.482895813,2.505489807,7.418722687
12.63667529,-0.5056484985,2.515818329,7.236551514
12.64671829,-0.3812571716,2.708168335,6.968009949
12.65676129,-0.152233429,3.036435699,6.707102509
12.66680429,0.1417552185,3.406017151,6.658154297
12.67684729,0.3486250305,3.765569458,6.85200119
12.68689029,0.5671705627,3.980821838,7.160359955
12.69693329,0.5505551147,3.978576508,7.405250702
12.70697629,0.3444337463,3.774550781,7.525750122
12.71701929,0.152233429,3.560495911,7.581434326
12.72706229,-0.03517684937,3.428919525,7.657625885
12.73710529,-0.2573149109,3.37458252,7.748486938
12.74714829,-0.4936734009,3.363655243,7.930658112
12.75719129,-0.6460565186,3.369493103,7.952812042
12.76723429,-0.7680528259,3.413651276,7.976013794
12.77727729,-0.6985972595,3.554059296,8.021369476
12.78732008,-0.5694158936,3.769760742,8.115523682
12.79736308,-0.4314028931,3.976630554,8.117619324
12.80740608,-0.3532653809,4.192332001,8.120463409
12.81744908,-0.3535647583,4.386328583,8.025411072
12.82749208,-0.2763253784,4.631069641,7.827223206
12.83753508,-0.2022294617,4.908742218,7.720944214
12.84757808,-0.2001338196,5.087171173,7.74249939
12.85762108,-0.199385376,5.185516663,7.804171143
12.86766408,-0.2495310974,5.23027359,7.93784317
12.87770708,-0.3026705933,5.224884796,8.164621582
12.88775008,-0.2637515259,5.060077515,8.576115875
12.89779308,-0.24923172,4.89916214,9.134005737
12.90783608,-0.2550695801,4.800367584,9.63336731
12.91787908,-0.3498225403,4.652774506,9.958341522
12.92792208,-0.6171665955,4.45563446,10.36968613
12.93796508,-1.072519684,4.224515076,10.91784622
12.94800808,-1.265917511,4.039799194,11.395952
12.95805108,-1.389710083,4.037853241,11.58051819
12.96809408,-1.438658295,4.223467255,11.49953659
12.97813708,-1.067579956,4.424798584,11.2923674
12.98818008,-0.4867877197,4.624932404,10.99254089
12.99822308,0.1583706665,4.801565094,10.58927948
13.00826608,0.5896238708,4.900659027,10.3249292
13.01830908,0.866098938,4.912634125,10.44497955
13.02835208,0.8779243469,4.722679138,10.59811111
13.03839508,0.4914280701,4.522245941,10.6540947
13.04843808,-0.1294807434,4.299808502,10.83072739
13.05848108,-0.7749385071,3.927083588,10.99298996
13.06852408,-1.337917786,3.48804657,10.92173813
13.07856708,-1.65331192,3.273542633,10.41085052
13.08861008,-1.529669037,3.388054504,9.618847504
13.09865308,-1.066681824,3.705993347,8.87160141
13.10869608,-0.3656895447,3.991599426,8.531658325
13.11873908,0.5111869812,4.015100555,8.625213776
13.12878208,1.208586731,3.833528137,9.142088928
13.13882508,1.573078766,3.63309494,9.867929535
13.14886808,1.544188843,3.324586487,10.42671753
13.15891108,1.43102417,2.944227448,10.61562469
13.16895408,1.206940155,2.794688416,10.38300842
13.17899708,0.8909472656,2.938539276,9.738448792
13.18904008,0.7445516968,3.197201385,8.809031525
13.19908308,0.6855743408,3.484753418,7.824678497
13.20912608,0.5113366699,3.646267548,7.080875244
13.21916908,0.3567082214,3.642375641,6.654561768
13.22921208,0.03891906738,3.508553925,6.498286743
13.23925508,-0.2284249878,3.32772995,6.647825775
13.24929808,-0.3631448364,3.091221771,6.909930725
13.25934108,-0.4947212219,2.937641144,7.049590302
13.26938408,-0.5156776428,2.975213013,7.097341003
13.27942708,-0.4183799744,3.022963715,7.17023941
13.28947008,-0.2667453003,3.078198853,7.217241669
13.29951308,-0.09699829102,3.236120453,7.010521545
13.30955608,0.02110610962,3.421435089,6.715485077
13.31959908,0.02200424194,3.573668518,6.665189667
13.32964208,-0.04580474854,3.632945251,6.91052948
13.33968508,-0.05029541016,3.646566925,7.329208832
13.34972808,-0.008083190918,3.743864594,7.565417633
13.35977108,-0.08382568359,3.876339111,7.688012695
13.36981408,-0.2348616028,3.96196106,7.861352234
13.37985708,-0.2897973633,3.940555573,8.053402863
13.38990008,-0.290994873,3.935166779,8.196654968
13.39994308,-0.2365081787,4.033811646,8.253686371
13.40998608,-0.1068777466,4.188739471,8.297395477
13.42002908,-0.002395019531,4.468956757,8.419691162
13.43007208,0.1216969299,4.745132446,8.557105408
13.44011508,0.256716156,4.969964905,8.713230743
13.45015808,0.3507206726,5.095104675,8.884175262
13.46020108,0.4061054993,5.147795105,9.08101593
13.47024408,0.3823049927,5.127736816,9.242679749
13.48028708,0.1432521057,5.023553467,9.470955048
13.49033008,-0.2715353394,4.83479599,10.0448616
13.50037308,-0.4222718811,4.56685318,10.55470139
13.51041608,-0.4314028931,4.37734726,10.53224808
13.52045908,-0.5560935974,4.284540253,10.19784348
13.53050208,-0.6322851562,4.152215424,10.15892441
13.54054508,-0.7303312683,3.930077362,10.53179901
13.55058808,-1.065783691,3.796704712,11.05301514
13.56063108,-1.259181519,3.882476349,11.37439682
13.57067408,-1.164129181,4.237537994,11.33757339
13.58071708,-0.8144563293,4.757706299,10.92667786
13.59076008,-0.4415817261,5.35316803,10.28226791
13.60080308,-0.09610015869,5.743107147,9.712552643
13.61084608,0.2222877502,5.662275238,9.597741394
13.62088908,0.2501298523,5.104085999,10.17329453
13.63093208,-0.2480342102,4.224664764,11.24970612
13.64097508,-0.8849597168,3.288960571,11.92345505
13.65101808,-1.418001251,2.632425842,11.74158325
13.66106108,-1.472787323,2.602787476,10.5638324
13.67110408,-1.284927979,3.165018311,8.929231567
13.68114708,-1.015338593,3.8472995,7.724387054
13.69119008,-0.7640112305,4.215084686,7.27562027
13.70123308,-0.609382782,4.104015656,7.409891052
13.71127608,-0.5736071777,3.606749725,7.963889008
13.72131908,-0.5179229736,3.051254883,9.105864258
13.73136208,-0.4272116089,2.568209381,10.39857605
13.74140508,-0.4658312988,2.205513611,11.21991806
13.75144808,-0.499511261,2.051334229,11.50432663
13.76149108,-0.4493655396,2.07333847,11.38547379
13.77153408,-0.3664379883,2.309098206,10.7018454
13.78157692,-0.1815724182,2.614912262,9.657766571
13.79161992,0.002694396973,2.936293945,8.76741806
13.80166292,0.08816665649,3.139421539,8.401878204
13.81170592,-0.07828720093,3.215014343,8.280330963
13.82174892,-0.3785627747,3.132835236,8.028704224
13.83179192,-0.4555027771,3.085832977,7.618108063
13.84183492,-0.3393443298,3.24929306,7.191794586
13.85187792,-0.016615448,3.574267273,6.802603912
13.86192092,0.2977308655,3.916605377,6.511758728
13.87196392,0.5390290833,4.142036591,6.359225922
13.88200692,0.597557373,4.243076477,6.327641602
13.89204992,0.4670288086,4.257296906,6.439309387
13.90209292,0.1868115234,4.13036087,6.657106476
13.91213592,-0.1471440125,3.937412109,6.894363098
13.92217892,-0.3608995056,3.76182724,7.102131042
13.93222192,-0.5237608337,3.60854599,7.236701202
13.94226492,-0.8134085083,3.522175598,7.500602417
13.95230792,-0.9624984741,3.467389526,7.826774139
13.96235092,-1.050665131,3.447181549,8.052953796
13.97239392,-1.08344696,3.569177856,8.305927734
13.98243692,-0.8084687805,3.861220551,8.556955719
13.99247992,-0.4776567078,4.226610718,8.510701904
14.00252292,-0.2707868958,4.570445709,8.278534698
14.01256592,-0.1954934692,4.850513306,8.231083374
14.02260892,-0.09909393311,5.025649109,8.321495361
14.03265192,-0.08068222046,5.062023468,8.475824432
14.04269492,-0.04610412598,5.096601562,8.646020508
14.05273792,-0.1812730408,5.074447632,8.777147827
14.06278092,-0.3650907898,4.90964035,9.130113831
14.07282392,-0.3390449524,4.669988708,9.606872406
14.08286692,-0.2444416809,4.483925629,9.869276733
14.09290992,-0.08247848511,4.371210022,9.789193268
14.10295292,0.02709365845,4.334685974,9.613309021
14.11299592,0.1486408997,4.331841888,9.661059723
14.12303892,-0.06301895142,4.268373871,9.905351715
14.13308192,-0.5010081482,4.176914062,10.41968216
14.14312492,-1.021026764,4.106710052,10.95481934
14.15316792,-1.173110504,4.148173828,11.07576782
14.16321092,-0.9216334534,4.220623169,10.79644867
14.17325392,-0.4704716492,4.288731537,10.65903442
14.18329692,0.05628295898,4.226760406,10.72444839
14.19333992,0.4216731262,4.209695892,10.76725937
14.20338292,0.6087840271,4.275409241,10.84225342
14.21342592,0.8638536072,4.280648346,10.9394014
14.22346892,0.887504425,4.289180603,10.71441925
14.23351192,0.4938230896,4.299509125,10.29798523
14.24355492,-0.1134640503,4.10581192,10.07704468
14.25359792,-0.6224057007,3.713477783,10.12973511
14.26364092,-0.9202862549,3.365002441,10.24918671
14.27368392,-1.007854156,3.246898041,10.0833316
14.28372692,-0.7723937988,3.30782135,9.66495163
14.29376992,-0.1267863464,3.455564117,9.268426208
14.30381292,0.7804769897,3.611390076,9.110654297
14.31385592,1.733245697,3.689976654,9.187145233
14.32389892,2.256856842,3.674259338,9.555379486
14.33394192,2.126777344,3.451223145,10.19155655
14.34398492,1.773511963,3.021766205,10.71127579
14.35402792,1.383872223,2.624642029,10.78327606
14.36407092,0.9196875,2.546354828,10.34887939
14.37411392,0.5773493958,2.727029114,9.783355408
14.38415692,0.4281097412,3.057541809,9.149723053
14.39419992,0.3829037476,3.374133453,8.402177582
14.40424292,0.322130127,3.59567276,7.609875183
14.41428592,0.3224295044,3.751199341,7.062912598
14.42432892,0.3465293884,3.860172729,6.881190491
14.43437192,0.3625460815,3.790866852,6.99480423
14.44441492,0.3002755737,3.650159454,7.145241394
14.45445792,0.195643158,3.482508087,7.187154236
14.46450092,0.07783813477,3.476969604,7.246580658
14.47454392,0.001197509766,3.580853577,7.239994354
14.48458692,0.05822891235,3.761378174,7.126679993
14.49462992,0.1751358032,3.871100006,6.866820374
14.50467292,0.2392025757,3.997736664,6.652466125
14.51471592,0.2920426941,4.12572052,6.698270874
14.52475892,0.2549198914,4.179758148,6.897955627
14.53480192,0.1544787598,4.179758148,7.074738007
14.54484492,-0.1365161133,4.101770325,7.26154953
14.55488792,-0.4677772522,3.981420593,7.550448761
14.56493092,-0.6265969849,3.874093781,7.792196045
14.57497392,-0.6700067139,3.895349579,7.710765381
14.58501692,-0.5539979553,4.040996704,7.47096405
14.59505992,-0.3451821899,4.307742004,7.380701752
14.60510292,-0.1498384094,4.528383179,7.500003662
14.61514592,-0.003442840576,4.670886841,7.96239212
14.62518892,0.1425036621,4.759801941,8.410709839
14.63523192,0.1863624573,4.750221863,8.602012024
14.64527492,0.0687071228,4.778513031,8.833281097
14.65531792,-0.008083190918,4.872367859,9.148226166
14.66536092,0.02664459229,4.986580353,9.328601074
14.67540392,0.1239422607,5.106481018,9.258995819
14.68544692,0.26210495,5.148543549,9.052724762
14.69548992,0.3791615295,5.08522522,8.976982269
14.70553292,0.2537223816,4.961282959,9.192384338
14.71557592,-0.0137713623,4.636907501,9.499994659
14.72561892,-0.3514691162,4.178261261,9.800868988
14.73566192,-0.8804690552,3.85538269,10.2864592
14.74570492,-1.397643585,3.75359436,10.82743423
14.75574792,-1.629511414,3.864214325,11.07756409
14.76579092,-1.373244324,4.250860291,10.69555847
14.77583392,-0.9809101868,4.809348907,9.870923309
14.78587729,-0.6698570251,5.318739624,9.395062866
14.79592029,-0.290994873,5.520819397,9.444759521
14.80596329,0.0904119873,5.168152771,9.914333038
14.81600629,0.007035369873,4.381688232,10.82144669
14.82604929,-0.4966671753,3.474275208,11.76238998
14.83609229,-1.033750305,2.743195496,12.10263245
14.84613529,-1.164877625,2.412832489,11.63156204
14.85617829,-0.8610095215,2.64559845,10.40665924
14.86622129,-0.5827381897,3.250939636,9.13834671
14.87626429,-0.2874023438,3.69042572,8.377179565
14.88630729,-0.07694000244,3.646267548,8.254434814
14.89635029,-0.06511459351,3.256777496,8.782386932
14.90639329,-0.2624043274,2.826721802,9.809401245
14.91643629,-0.4954696655,2.409689026,10.91709778
14.92647929,-0.7801776123,1.982028351,11.61389877
14.93652229,-0.9060658264,1.714235229,11.76373718
14.94656529,-0.7957452393,1.7504599,11.49399811
14.95660829,-0.5737568665,2.055375824,10.86725143
14.96665129,-0.2836601257,2.49935257,9.962981873
14.97669529,-0.033230896,2.954106903,9.193581848
14.98673729,0.1451980591,3.313359833,8.830287323
14.99678029,0.3477268982,3.558699646,8.67386261
15.00682329,0.500559082,3.74191864,8.354127502
15.01686729,0.5888754272,3.861968994,7.938142548
15.02691029,0.7081773376,3.992796936,7.595056
15.03695329,0.7815248108,4.107308807,7.301217041
15.04699629,0.8434959412,4.179009705,7.025340729
15.05703929,0.7741900635,4.181704102,6.894662476
15.06708229,0.5396278381,4.066743164,7.022197266
15.07712529,0.3538641357,3.862118683,7.404202881
15.08716829,0.315693512,3.748205566,7.705825653
15.09721129,0.1832189941,3.728446655,7.738457794
15.10725429,-0.01002914429,3.689826965,7.639363861
15.11729729,-0.1745370483,3.602857819,7.635172577
15.12734029,-0.3381468201,3.580254822,7.619305573
15.13738329,-0.4278103638,3.639980621,7.507338409
15.14742629,-0.3951782227,3.70210144,7.411088562
15.15746929,-0.2595602417,3.791764984,7.591762848
15.16751229,-0.3097059631,3.893703003,8.102201385
15.17755529,-0.4346960449,3.879781952,8.487350464
15.18759829,-0.7300318909,3.886817322,8.771160278
15.19764129,-0.853225708,3.915407867,8.851094055
15.20768429,-0.7605683899,4.060755615,8.485554199
15.21772729,-0.6686595154,4.412524109,7.814349976
15.22777029,-0.5334906006,4.734504547,7.420518951
15.23781329,-0.3159928894,4.956792297,7.510182495
15.24785629,-0.1926493835,5.127138062,7.884853363
15.25789929,-0.3659889221,5.092859344,8.301137695
15.26794229,-0.7397616577,4.911885681,8.733738098
15.27798529,-1.061143341,4.578678589,9.133257294
15.28802829,-1.036295013,4.272265778,9.293274536
15.29807129,-0.8876541138,4.134552155,9.389225006
15.30811429,-0.6099815369,4.160448303,9.568402405
15.31815729,-0.4825964355,4.203558655,9.826914825
15.32820029,-0.4966671753,4.192631378,10.01402573
15.33824329,-0.7770341492,4.227209473,10.15593063
15.34828629,-1.164129181,4.302802277,10.32268387
15.35832929,-1.469943237,4.266876984,10.35561539
15.36837229,-1.351389771,4.266427917,10.18077896
15.37841529,-0.9418414307,4.279450836,9.89187973
15.38845829,-0.5822891235,4.332290955,9.911339264
15.39850129,-0.2580633545,4.374054108,10.27014313
15.40854429,0.1787283325,4.40533905,10.73807007
15.41858729,0.6412664795,4.446054382,10.99298996
15.42863029,0.9713301086,4.553530884,10.95886093
15.43867329,1.047821045,4.616549835,10.81246536
15.44871629,0.7375163269,4.465513916,10.92039093
15.45875929,0.1654060364,4.113296356,11.24476639
15.46880229,-0.4501139832,3.644321594,11.23563538
15.47884529,-0.8770262146,3.335513763,10.76890594
15.48888829,-0.8952882385,3.183130646,10.14560211
15.49893129,-0.5411247253,3.131338348,9.674681396
15.50897429,-0.07214996338,3.037782898,9.41332489
15.51901729,0.5604345703,2.98958313,9.584568787
15.52906029,1.185983734,3.043920135,10.10653336
15.53910329,1.463656311,3.069965973,10.423125
15.54914629,1.465751953,3.092718658,10.32073792
15.55918929,1.344354401,3.105292511,9.921817474
15.56923229,1.230141907,3.170257416,9.361233215
15.57927529,1.027613068,3.346890106,8.633746033
15.58931829,0.8357121277,3.53953949,7.804919586
15.59936129,0.660276947,3.679049377,7.127727814
15.60940429,0.3080593872,3.735781403,6.694229279
15.61944729,-0.08038284302,3.653153229,6.348148956
15.62949029,-0.4682263184,3.501668243,6.034700775
15.63953329,-0.900377655,3.345842285,5.915398865
15.64957629,-1.270258484,3.210224304,6.007607117
15.65961929,-1.550775146,3.066523132,6.232140198
15.66966229,-1.469494171,3.003803558,6.4577211
15.67970529,-1.297352142,3.102448425,6.473887482
15.68974829,-1.075962524,3.304977264,6.327042847
15.69979129,-0.8893006897,3.486699371,6.21193222
15.70983429,-0.7747888184,3.556304626,6.407575378
15.71987729,-0.7195536804,3.668870544,6.849456482
15.72992029,-0.7047344971,3.777394867,7.202871552
15.73996329,-0.7467970276,3.811673584,7.425608368
15.75000629,-0.6759942627,3.813020782,7.547305298
15.76004929,-0.6063890076,3.794309692,7.672445068
15.77009229,-0.5357359314,3.869603119,8.017627258
15.78013529,-0.3980223083,3.977977753,8.466394043
15.79017779,-0.4637356567,4.031716003,8.841963043
15.80022079,-0.6129753113,3.935316467,9.134305115
15.81026379,-0.6664141846,3.793860626,9.483079834
15.82030679,-0.5701643372,3.783232727,9.725276184
15.83034979,-0.2203417969,3.924389191,9.673783264
15.84039279,0.1073268127,4.16553772,9.462572479
15.85043579,0.3010240173,4.330794067,9.459429016
15.86047879,0.4983137512,4.394711151,9.665550385
15.87052179,0.5505551147,4.40533905,9.881102142
15.88056479,0.4707710266,4.403991852,10.01881577
15.89060779,0.3420387268,4.35624115,10.0382753
15.90065079,0.1933978271,4.222718811,10.0502504
15.91069379,0.0889151001,4.059408417,10.21535706
15.92073679,0.07783813477,3.887116699,10.51278854
15.93077979,0.1047821045,3.680546265,10.77863571
15.94082279,0.1083746338,3.572471008,11.04852448
15.95086579,0.1281335449,3.593128052,11.20030884
15.96090979,0.2490820312,3.705244904,11.05091949
15.97095279,0.5150788879,3.925287323,10.64406555
15.98099579,0.6556365967,4.283193054,10.06387207
15.99103879,0.8348139954,4.646487579,9.602681122
16.00108179,0.8970845032,4.76578949,9.837692413
16.01112479,0.9247769165,4.376898193,10.84734283
16.02116779,0.8669970703,3.513343964,12.22747284
16.03121079,0.3210823059,2.67134491,13.57407257
16.04125379,-0.3456312561,2.190095673,14.44256653
16.05129679,-0.6593788147,2.051633606,14.4403212
16.06133979,-0.7560777283,2.276016998,13.05839493
16.07138279,-0.5330415344,2.739453278,10.73567505
16.08142579,-0.1345701599,3.342698822,8.933722229
16.09146879,0.2832110596,3.869752808,8.037086792
16.10151179,0.4793032837,4.147425385,7.597600708
16.11155479,0.5125341797,3.988156586,7.718249817
16.12159779,0.4170327759,3.470982056,8.358468475
16.13164079,0.2498304749,2.919528809,9.245224457
16.14168379,0.3436853027,2.564317474,9.920619965
16.15172679,0.4956193542,2.397713928,10.18302429
16.16176979,0.5758525085,2.318678284,10.11326935
16.17181279,0.712817688,2.245929565,9.823322296
16.18185579,0.8562194824,2.195634155,9.410031738
16.19189879,0.7717950439,2.134411469,9.008865967
16.20194179,0.5405259705,1.984123993,8.671617279
16.21198479,0.2324665833,1.898651733,8.547675018
16.22202779,-0.07499404907,1.852397919,8.510851593
16.23207079,-0.3077600098,1.774110718,8.319549408
16.24211379,-0.590072937,1.740730133,7.966433716
16.25215679,-0.6384223938,1.860331421,7.644453278
16.26219979,-0.4108955383,2.124981079,7.372468872
16.27224279,-0.206869812,2.434537354,7.162754974
16.28228579,-0.1005908203,2.786305847,7.001091156
16.29232879,-0.155975647,3.01877243,6.871161346
16.30237179,-0.3797602844,3.093916168,6.852599945
16.31241479,-0.6065386963,3.083288269,6.926097107
16.32245779,-0.8376580811,3.052901459,7.021149445
16.33250079,-0.9907896423,3.028651886,7.176376648
16.34254379,-1.037492523,3.033292236,7.463778992
16.35258679,-0.900377655,3.146905975,7.77168869
16.36262979,-0.7195536804,3.354224854,7.981552277
16.37267279,-0.4336482239,3.593427429,8.056845703
16.38271579,-0.2758763123,3.838318176,8.155640259
16.39275879,-0.2917433167,4.02857254,8.274193726
16.40280179,-0.3050656128,4.20640274,8.320597229
16.41284479,-0.3544628906,4.399201813,8.301287384
16.42288779,-0.2839595032,4.574636993,8.221503296
16.43293079,-0.02005828857,4.753515015,8.15668808
16.44297379,0.2071691895,4.974605255,8.299491119
16.45301679,0.3604504395,5.145250397,8.646469574
16.46305979,0.3709286499,5.140610046,9.043144684
16.47310279,0.3197351074,4.990172882,9.30689621
16.48314579,0.2962339783,4.814438324,9.385033722
16.49318879,0.2118095398,4.703518982,9.665849762
16.50323179,-0.005987548828,4.465214539,10.31070877
16.51327479,-0.1910028076,4.093387756,10.99059494
16.52331779,-0.5680686951,3.851341095,11.30778534
16.53336079,-0.9892927551,3.780238953,11.39535324
16.54340379,-1.202449493,3.897295532,11.36182297
16.55344679,-1.005608826,4.107308807,11.2034523
16.56348979,-0.6358776855,4.376000061,11.0070607
16.57353279,-0.2773731995,4.636009369,10.79105988
16.58357579,0.117355957,4.667593689,10.42387344
16.59361879,0.2338137817,4.402195587,10.21071671
16.60366179,0.01002914429,3.928730164,10.31939072
16.61370479,-0.4011657715,3.337010651,10.72474777
16.62374779,-0.8957373047,2.819387054,11.27575195
16.63379079,-1.318458252,2.496508484,11.7674794
16.64383379,-1.534908142,2.378703461,11.98123489
16.65387679,-1.410367126,2.563419342,11.7674794
16.66391979,-0.8422984314,3.102298737,11.04238724
16.67396279,-0.007185058594,3.732039185,9.91762619
16.68400579,0.776585083,4.156257019,9.033265228
16.69404879,1.46844635,4.299359436,8.764274597
16.70409179,1.727707214,4.151916046,8.925938416
16.71413479,1.506317596,3.767964478,9.271419983
16.72417779,1.206042023,3.278332672,9.484277344
16.73422079,1.019679565,2.960244141,9.50104248
16.74426379,0.8590635681,2.953358459,9.349557495
16.75430679,0.8196954346,3.115171967,8.97578476
16.76434979,0.8165519714,3.386856995,8.39768692
16.77439279,0.7502398682,3.611240387,7.783813477
16.78443592,0.6105802917,3.724704437,7.408094788
16.79447892,0.3769161987,3.711232452,7.351063385
16.80452192,0.1100212097,3.604953461,7.461533661
16.81456492,-0.1591191101,3.467090149,7.571405182
16.82460792,-0.3288661194,3.328478394,7.58098526
16.83465092,-0.3731739807,3.273093567,7.449857941
16.84469392,-0.2607577515,3.290158081,7.18431015
16.85473692,-0.03981719971,3.428620148,6.920109558
16.86477992,0.1502874756,3.722758484,6.798412628
16.87482292,0.3927832031,3.977977753,6.792425079
16.88486592,0.5477110291,4.143683167,6.766229553
16.89490892,0.3885919189,4.229005737,6.781348114
16.90495292,0.1392105103,4.117637329,6.797963562
16.91499592,-0.01332229614,3.945944366,6.906936951
16.92503892,-0.1529818726,3.846850433,7.004234619
16.93508192,-0.2460882568,3.779789886,7.064708862
16.94512492,-0.2136058044,3.772604828,7.215295715
16.95516792,-0.1769320679,3.94669281,7.408244476
16.96521092,-0.0758921814,4.147874451,7.437583466
16.97525392,0.03951782227,4.342020721,7.443870392
16.98529692,0.04565505981,4.489763489,7.767946472
16.99533992,-0.1317260742,4.558470612,8.081244965
17.00538292,-0.3962260437,4.491410065,8.197104034
17.01542592,-0.5706134033,4.464915161,8.27598999
17.02546892,-0.5719606018,4.50248703,8.414152679
17.03551192,-0.5529501343,4.622687073,8.669671326
17.04555492,-0.4887336731,4.782554626,8.924441528
17.05559792,-0.5370831299,4.91323288,9.067543945
17.06564092,-0.6023474121,4.945565643,9.029672699
17.07568392,-0.636177063,4.924459534,8.880882111
17.08572692,-0.6080355835,4.87925354,8.855285339
17.09576992,-0.7285350037,4.771028595,9.210496674
17.10581292,-0.9499246216,4.489763489,9.85326004
17.11585592,-1.412612457,4.210444336,10.52431458
17.12589892,-1.865869904,4.089046783,10.96889008
17.13594192,-1.841171265,4.167483673,11.04882385
17.14598492,-1.523831177,4.543352051,10.6686145
17.15602792,-1.244661713,5.02085907,10.25083328
17.16607092,-0.8702902222,5.266647949,10.33735336
17.17611392,-0.5888754272,5.032684479,11.07696533
17.18615692,-0.6652166748,4.372407532,12.15966385
17.19619992,-1.168320465,3.476819916,12.99402878
17.20624292,-1.643881531,2.80591507,13.10599594
17.21628592,-1.623523865,2.548899536,12.30845444
17.22632892,-1.345851288,2.970123596,10.78567108
17.23637192,-0.9849517822,3.680546265,9.181906128
17.24641492,-0.6165678406,4.062402191,8.182733917
17.25645792,-0.6577322388,4.010909271,7.785460052
17.26650092,-0.9295669556,3.677402802,7.931107178
17.27654392,-1.197060699,3.241658936,8.57087677
17.28658692,-1.404978333,2.874472504,9.589209137
17.29662992,-1.274599457,2.605032806,10.41324554
17.30667292,-1.047521667,2.447260895,10.66786606
17.31671592,-0.853225708,2.452050934,10.5930217
17.32675892,-0.5867797852,2.549348602,10.3753743
17.33680192,-0.2200424194,2.751727753,10.08318192
17.34684492,-0.03128494263,2.911295929,9.740394745
17.35688792,-0.1008901978,2.948718109,9.576335907
17.36693092,-0.2213896179,2.840343475,9.435478821
17.37697392,-0.3490740967,2.67838028,9.150621185
17.38701692,-0.3707789612,2.610271912,8.655450897
17.39705992,-0.2784210205,2.699187012,7.998467102
17.40710292,-0.06316864014,2.941982117,7.473808136
17.41714592,0.2677931213,3.325634308,7.153174896
17.42718892,0.5679190063,3.634591827,6.925648041
17.43723192,0.7170089722,3.831731873,6.732848969
17.44727492,0.8116122437,3.921395416,6.725514221
17.45731792,0.6595285034,3.861968994,6.926097107
17.46736092,0.1710942078,3.609144745,7.238647156
17.47740392,-0.1031355286,3.318299561,7.509434052
17.48744692,-0.2451901245,3.205134888,7.57634491
17.49748992,-0.3176394653,3.263513489,7.484436035
17.50753292,-0.330662384,3.432362366,7.364086304
17.51757592,-0.3483256531,3.62261673,7.282056885
17.52761892,-0.38963974,3.781286774,7.318580933
17.53766192,-0.3653901672,4.001628571,7.503596191
17.54770492,-0.2321672058,4.193379822,7.766000519
17.55774792,-0.06182144165,4.352648621,8.080346832
17.56779092,0.0904119873,4.487368469,8.379574585
17.57783392,0.2531236267,4.606820068,8.52177887
17.58787692,0.3520678711,4.804858246,8.540789337
17.59791992,0.5535488892,5.011877747,8.532556458
17.60796292,0.5962101746,5.148693237,8.543483734
17.61800592,0.6108796692,5.141807556,8.656199341
17.62804892,0.4342469788,4.987179108,8.931476898
17.63809192,0.1434017944,4.7364505,9.419013062
17.64813492,-0.1348695374,4.423750763,9.933343506
17.65817792,-0.1916015625,4.218377838,10.27957352
17.66822092,-0.2179467773,4.155957642,10.4496199
17.67826392,-0.2627037048,4.273014221,10.82219513
17.68830692,-0.4031117249,4.400848389,11.07951004
17.69834992,-0.6794371033,4.224964142,10.91051147
17.70839292,-0.7937992859,4.019142151,10.74435699
17.71843592,-0.7590715027,3.940256195,10.74211166
17.72847892,-0.4810995483,3.859573975,10.68642746
17.73852292,-0.2553689575,3.676205292,10.46593597
17.74856592,-0.1586700439,3.459605713,10.4815036
17.75860892,-0.2050735474,3.32069458,11.16737732
17.76865192,-0.5149291992,3.249891815,12.3885379
17.77869492,-0.8246351624,3.153492279,13.26541443
17.78873742,-0.9613009644,2.957400055,13.28352676
17.79878042,-1.075513458,2.88075943,12.60498779
17.80882342,-1.018931122,2.890339508,11.57363251
17.81886642,-0.6771917725,3.123704224,10.53314621
17.82890942,-0.001945953369,3.585643616,9.98663269
17.83895242,0.6177653503,3.974983978,9.718540192
17.84899542,1.25079895,4.114942932,9.500892792
17.85903842,1.58894577,4.046235809,9.333690491
17.86908142,1.69312912,3.835174713,9.137897644
17.87912442,1.606010284,3.425476685,9.005572815
17.88916742,1.129700775,2.988086243,8.872499542
17.89921042,0.5113366699,2.631078644,8.746162262
17.90925342,0.08053253174,2.387086029,8.44214447
17.91929642,-0.263152771,2.340383148,7.959697723
17.92933942,-0.5215155029,2.40923996,7.385641479
17.93938242,-0.7066804504,2.483485565,6.81921936
17.94942542,-0.7711962891,2.619702301,6.485712891
17.95946842,-0.742306366,2.825973358,6.514004059
17.96951142,-0.7927514648,2.957849121,6.64019165
17.97955442,-0.7668553162,3.018173676,6.928192749
17.98959742,-0.7125183105,3.075354767,7.148833923
17.99964042,-0.6810836792,3.145708466,7.167844391
18.00968342,-0.6505471802,3.294049988,7.174730072
18.01972642,-0.5141807556,3.455713806,7.056925049
18.02976942,-0.4116439819,3.632496185,6.864575043
18.03981242,-0.4499642944,3.800147552,6.720873871
18.04985542,-0.5571414185,3.874692535,6.781348114
18.05989842,-0.5673202515,3.917802887,6.990313568
18.06994142,-0.510737915,3.971092072,7.18431015
18.07998442,-0.5459147644,4.034111023,7.333699493
18.09002742,-0.5551954651,4.078568573,7.312593384
18.10007042,-0.5475613403,4.110601959,7.267237701
18.11011342,-0.5888754272,4.155209198,7.311395874
18.12015642,-0.6562353516,4.136498108,7.293732605
18.13019942,-0.7711962891,4.13859375,7.350614319
18.14024242,-0.8297245789,4.176464996,7.569608917
18.15028542,-0.8861572266,4.322860565,7.982450409
18.16032842,-0.9235794067,4.503235474,8.275840302
18.17037142,-0.9425898743,4.572541351,8.269253998
18.18041442,-0.9153465271,4.670737152,8.249794464
18.19045742,-0.7123686218,4.84647171,8.234975281
18.20050042,-0.4899311829,5.026397552,8.30293396
18.21054342,-0.3052153015,5.200186157,8.450227661
18.22058642,-0.3824546814,5.159321136,8.736731873
18.23062942,-0.5177732849,4.910388794,9.148525543
18.24067242,-0.5484594727,4.515809326,9.472901001
18.25071542,-0.739611969,4.125271454,9.821076965
18.26075842,-0.8584648132,3.766018524,10.36848862
18.27080142,-1.030906219,3.418591003,11.04762634
18.28084442,-1.356928253,3.204685822,11.5830629
18.29088742,-1.589095459,3.302731934,11.81044006
18.30093042,-1.277144165,3.694167938,11.57976974
18.31097342,-0.8047265625,4.378993835,11.00257004
18.32101642,-0.396076355,4.98568222,10.58568695
18.33105942,-0.01826202393,5.099595337,10.68897217
18.34110242,0.04071533203,4.649032288,11.31137787
18.35114542,-0.3436853027,3.778742065,12.32656677
18.36118842,-0.8824150085,2.742297363,13.08354263
18.37123142,-1.32459549,2.072140961,13.04776703
18.38127442,-1.328337708,1.96690979,12.20052887
18.39131742,-0.9792636108,2.339185638,10.95856155
18.40136042,-0.7135661316,3.025508423,9.885443115
18.41140342,-0.3565585327,3.550766144,9.14657959
18.42144642,-0.09011260986,3.77350296,8.851543121
18.43149042,0.1344204712,3.72560257,8.913364563
18.44153342,0.12753479,3.450325012,9.396859131
18.45157642,-0.05224136353,2.954555969,10.21550674
18.46161942,-0.1832189941,2.407892761,10.95347214
18.47166242,-0.44697052,1.992955627,11.32380203
18.48170542,-0.7030879211,1.766626282,11.2803923
18.49174842,-0.7032376099,1.80659317,10.91290649
18.50179142,-0.4153862,2.048939209,10.22388931
18.51183442,-0.2335144043,2.337688751,9.437125397
18.52187742,-0.2017803955,2.560275879,8.931027832
18.53192042,-0.14040802,2.663860474,8.777896271
18.54196342,-0.1049317932,2.717898102,8.68673584
18.55200642,-0.1652563477,2.788700867,8.428522797
18.56204942,-0.09160949707,2.900218964,8.049810333
18.57209242,0.03353027344,3.029250641,7.631430359
18.58213542,0.1675016785,3.189866638,7.360793152
18.59217842,0.2056723022,3.355122986,7.346423035
18.60222142,0.1998344421,3.438200226,7.414232025
18.61226442,0.1422042847,3.413351898,7.455396423
18.62230742,0.05388793945,3.301833801,7.408843231
18.63235042,-0.119002533,3.172652435,7.360643463
18.64239342,-0.3860472107,3.01532959,7.414531403
18.65243642,-0.6036946106,2.87836441,7.391928406
18.66247942,-0.758921814,2.881807251,7.397766266
18.67252242,-0.7837701416,2.937341766,7.383396149
18.68256542,-0.6947053528,3.070714417,7.371870117
18.69260842,-0.5324427795,3.369942169,7.530839539
18.70265142,-0.3806584167,3.63548996,7.849227448
18.71269442,-0.2671943665,3.775448914,8.234526215
18.72273742,-0.2531236267,3.885470123,8.498577118
18.73278042,-0.2917433167,3.978875885,8.693621521
18.74282342,-0.3326083374,4.02393219,8.836873627
18.75286642,-0.3872447205,4.071533203,8.857231293
18.76290942,-0.3875440979,4.069287872,8.75693985
18.77295242,-0.4028123474,4.082610168,8.671018524
18.78299542,-0.2270777893,4.133354645,8.76277771
18.79303942,-0.09116043091,4.163891144,9.099277954
18.80308242,-0.05673202515,4.090992737,9.614207153
18.81312542,-0.1996847534,3.890858917,10.05249573
18.82316842,-0.367635498,3.736679535,10.18167709
18.83321142,-0.4017645264,3.732338562,10.28720764
18.84325442,-0.5409750366,3.71272934,10.50994446
18.85329742,-0.7131170654,3.569626923,10.63104263
18.86334042,-1.014290771,3.400778046,10.63493454
18.87338342,-1.10335556,3.339854736,10.56278458
18.88342642,-0.629740448,3.365301819,10.40082138
18.89346942,-0.0043409729,3.545077972,10.16625916
18.90351242,0.4179309082,3.857029266,10.08707382
18.91355542,0.70907547,4.087849274,10.27089157
18.92359842,1.02731369,4.133654022,10.3475322
18.93364142,1.223106537,4.215683441,10.12973511
18.94368442,1.260379028,4.41117691,9.848470001
18.95372742,1.048569489,4.450095978,9.833501129
18.96377042,0.3670367432,4.14443161,10.26670029
18.97381342,-0.4468208313,3.466641083,10.8477919
18.98385742,-1.111139374,3.019071808,10.96080688
18.99390042,-1.271306305,2.850671997,10.61846878
19.00394342,-0.8690927124,2.907404022,10.0568367
19.01398642,-0.1392105103,3.150199127,9.541308746
19.02402942,0.8038284302,3.267405396,9.309291229
19.03407242,1.658251648,3.326233063,9.825118561
19.04411542,1.973196716,3.185825043,10.77998291
19.05415842,1.946402435,2.765050049,11.42199783
19.06420142,1.720671844,2.37062027,11.60910873
19.07424442,1.501527557,2.277962952,11.39580231
19.08428742,1.409618683,2.43378891,10.82638641
19.09433042,1.342258759,2.735411682,9.787696381
19.10437342,1.157991943,3.018922119,8.483009491
19.11441642,0.9783654785,3.18612442,7.399712219
19.12445942,0.8378077698,3.195405121,6.737639008
19.13450242,0.716559906,3.161276093,6.393205261
19.14454542,0.5442681885,3.042123871,6.183790741
19.15458842,0.4227209473,2.914140015,6.143225098
19.16463142,0.4876858521,2.825673981,6.335126038
19.17467442,0.5385800171,2.83046402,6.57118515
19.18471742,0.6572831726,2.939886475,6.794221344
19.19476042,0.6339317322,3.077450409,6.978937225
19.20480342,0.5746549988,3.243155823,7.124284973
19.21484642,0.5589376831,3.410058746,7.233258362
19.22488942,0.4138893127,3.513493652,7.237299957
19.23493242,0.2372566223,3.474724274,7.269932098
19.24497542,0.09505233765,3.381767578,7.386539612
19.25501842,-0.06571334839,3.355122986,7.528444519
19.26506142,-0.1164578247,3.434757385,7.736960907
19.27510442,-0.07005432129,3.545826416,7.92377243
19.28514742,0.01017883301,3.721411285,8.048463135
19.29519042,0.04610412598,3.904779968,8.112978973
19.30523342,0.04520599365,4.124373322,8.300988007
19.31527642,0.01407073975,4.343816986,8.678652649
19.32531942,0.08083190918,4.482728119,9.058712311
19.33536242,0.1758842468,4.635111237,9.268426208
19.34540542,0.2627037048,4.792134705,9.406588898
19.35544842,0.297431488,4.862189026,9.60402832
19.36549142,0.1716929626,4.896018677,9.791139221
19.37553442,0.2059716797,4.846172333,9.872120819
19.38557742,0.2724334717,4.829407196,9.977801056
19.39562042,0.3367996216,4.849914551,10.16910324
19.40566342,0.3902384949,4.719535675,10.1550325
19.41570642,0.4016148376,4.469854889,9.971663818
19.42574942,0.3218307495,4.237088928,9.96328125
19.43579242,0.102387085,3.921844482,10.02585114
19.44583642,-0.4956193542,3.701352997,10.13871643
19.45587942,-0.9457333374,3.708687744,10.38345749
19.46592242,-1.023421783,3.893703003,10.37746994
19.47596542,-1.0484198,4.332590332,9.838889923
19.48600842,-0.951870575,4.932991791,9.175918579
19.49605142,-0.8122109985,5.251679077,8.925788727
19.50609442,-0.4004173279,5.076243896,9.156608734
19.51613742,-0.05149291992,4.509223022,10.05578888
19.52618042,0.0008981323242,3.729195099,11.40957367
19.53622342,-0.2721340942,2.951711884,12.40859619
19.54626642,-0.5093907166,2.405048676,12.50095413
19.55630942,-0.4596940613,2.384092255,11.84127594
19.56635242,0.0260458374,2.846181335,10.4722229
19.57639542,0.4149371338,3.535048828,8.968300323
19.58643842,0.6384223938,4.00402359,8.05489975
19.59648142,0.6923103333,3.935915222,7.697892151
19.60652442,0.4360432434,3.413950653,7.746990051
19.61656742,-0.2029779053,2.706970825,8.225395203
19.62661042,-0.8228388977,1.968706055,9.188193054
19.63665342,-1.104702759,1.346150665,10.18976028
19.64669642,-1.21801712,1.110241241,10.76965439
19.65673942,-1.113833771,1.273701324,10.81605789
19.66678242,-0.5866300964,1.692979431,10.50919601
19.67682542,0.2113604736,2.205812988,9.868677979
19.68686842,0.616867218,2.736609192,9.241482239
19.69691142,0.6625222778,3.062631226,9.016051025
19.70695442,0.6429130554,3.074007568,9.062753906
19.71699742,0.4796026611,2.858006744,9.05526947
19.72704042,0.3673361206,2.740501099,9.036259003
19.73708342,0.2570155334,2.819536743,8.986412659
19.74712642,0.2975811768,3.007545776,8.74406662
19.75716942,0.5316943359,3.214415588,8.353678436
19.76721242,0.7153623962,3.395389252,8.153394928
19.77725542,0.8217910767,3.466790771,8.156987457
19.78729767,1.051413574,3.483705597,8.234825592
19.79734067,1.159039764,3.491040344,8.290659485
19.80738367,1.090033264,3.496728516,8.3369133
19.81742667,0.9762698364,3.503913574,8.379724274
19.82746967,0.7881111145,3.54298233,8.349038086
19.83751267,0.6658154297,3.569177856,8.174800415
19.84755567,0.5501060486,3.57456665,7.979157257
19.85759967,0.403560791,3.5898349,7.784112854
19.86764167,0.2757266235,3.585942993,7.744894409
19.87768467,0.2480342102,3.612587585,7.90745636
19.88772867,0.3471281433,3.742966461,8.142018585
19.89777167,0.3670367432,3.87065094,8.390950928
19.90781467,0.3005749512,3.870351563,8.489745483
19.91785767,0.2064207458,3.789519653,8.485703888
19.92790067,0.0672102356,3.675756226,8.375982056
19.93794367,0.05523513794,3.585942993,8.300838318
19.94798667,0.1456471252,3.60270813,8.336164856
19.95802967,0.1478924561,3.661984863,8.370293884
19.96807267,0.1676513672,3.64132782,8.390801239
19.97811567,0.385897522,3.617527313,8.562793579
19.98815867,0.4519102478,3.586092682,8.975934448
19.99820167,0.2017803955,3.336262207,9.27171936
20.00824467,-0.1785786438,2.918031921,9.32680481
20.01828767,-0.590072937,2.590812378,9.385482788
20.02833067,-0.8562194824,2.469863892,9.585616608
20.03837367,-0.8692424011,2.564018097,9.935888214
20.04841667,-0.7978408813,2.827170868,10.124496
20.05845967,-0.4969665527,3.193309479,10.16416351
20.06850267,-0.07963439941,3.600163422,10.17688705
20.07854567,0.4471202087,3.963907013,10.18122803
20.08858867,0.9648934937,4.125121765,10.16655853
20.09863167,1.310075684,4.050127716,10.12659164
20.10867467,1.613943787,3.791914673,10.05908203
20.11871767,1.616937561,3.567082214,9.933642883
20.12876067,1.173709259,3.302731934,9.671238556
20.13880367,0.4590953064,2.933898926,9.395062866
20.14884667,-0.2052232361,2.541864166,9.368418274
20.15888967,-0.8214916992,2.14129715,9.440717926
20.16893267,-0.8870553589,1.89086792,9.560319214
20.17897567,-0.4077520752,1.892963562,9.667047272
20.18901867,0.2984793091,1.97514267,9.904154205
20.19906167,1.015488281,2.15057785,10.5982608
20.20910467,1.457369385,2.436632996,11.52663025
20.21914767,1.509011993,2.570005646,12.17343521
20.22919067,1.286574554,2.55892868,12.38898697
20.23923367,0.9249266052,2.510728912,12.42640915
20.24927667,0.7457492065,2.438578949,12.23675354
20.25931967,0.5468128967,2.487527161,11.49070496
20.26936267,0.3426374817,2.66191452,10.51578232
20.27940567,0.168848877,2.827021179,9.805509338
20.28944867,0.1836680603,2.998265076,9.358987885
20.29949167,0.1062789917,3.116369476,8.99449585
20.30953567,-0.09071136475,3.105142822,8.681347046
20.31957867,-0.5080435181,2.965782623,8.385861511
20.32962167,-0.7743397522,2.695145416,8.101003876
20.33966467,-0.9080117798,2.468367004,7.862849121
20.34970767,-1.029259644,2.487078094,7.621251526
20.35975067,-1.06473587,2.607427826,7.306156769
20.36979367,-1.091979218,2.66430954,7.020251312
20.37983667,-1.073118439,2.790197754,6.923702087
20.38987967,-0.9180409241,2.926863556,6.965614929
20.39992267,-0.8985813904,3.006797333,7.02758606
20.40996567,-0.9624984741,3.016227722,7.202422485
20.42000867,-0.9819580078,3.00365387,7.608527985
20.43005167,-1.079405365,2.981499939,8.094866638
20.44009467,-1.050964508,3.027903442,8.484506378
20.45013767,-0.9864486694,3.185375977,8.699010315
20.46018067,-0.9199868774,3.432212677,8.816216583
20.47022367,-0.9674382019,3.610641632,8.888965302
20.48026667,-1.142574005,3.697311401,8.969497833
20.49030967,-1.334025879,3.739074554,8.990154877
20.50035267,-1.353934479,3.838467865,9.024433594
20.51039567,-1.231189728,4.019142151,9.138197021
20.52043867,-1.024170227,4.212390289,9.290580139
20.53048167,-0.8482859802,4.424948273,9.510023804
20.54052467,-0.909508667,4.607568512,9.732012177
20.55056767,-1.073717194,4.667893066,9.912387085
20.56061067,-1.197958832,4.636458435,10.07120682
20.57065367,-1.293011169,4.616998901,9.936037903
20.58069667,-1.235081635,4.72836731,9.686506805
20.59073967,-0.9904902649,4.874164124,9.464518433
20.60078267,-0.5388793945,5.026247864,9.506431274
20.61082567,-0.3402424622,5.049000549,9.779762878
20.62086867,-0.5739065552,4.800217896,10.13317795
20.63091167,-0.9189390564,4.225712585,10.38375687
20.64095467,-1.318757629,3.701652374,10.47237259
20.65099767,-1.651815033,3.40377182,10.58613602
20.66104067,-1.793420563,3.388503571,10.58419006
20.67108367,-1.772015076,3.59103241,10.25143204
20.68112667,-1.840273132,3.938310242,9.77602066
20.69117067,-1.848056946,4.36447403,9.429790649
20.70121367,-1.694476318,4.719535675,9.303153992
20.71125667,-1.426982574,4.869523773,9.1278685
20.72129967,-1.115330658,4.739893341,9.107810211
20.73134267,-0.9837542725,4.268224182,9.527088318
20.74138567,-1.234183502,3.385509796,10.45141617
20.75142867,-1.75869278,2.391277313,11.41122025
20.76147167,-2.241438904,1.796713715,12.02000427
20.77151467,-2.373164978,1.729653168,11.94590836
20.78155767,-1.975442047,2.06869812,10.91275681
20.79160079,-1.467099152,2.618504791,9.319020996
20.80164379,-1.163530426,3.183729401,8.123457184
20.81168679,-0.8443940735,3.552712097,7.532486115
20.82172979,-0.7970924377,3.598367157,7.322622528
20.83177279,-1.000818787,3.355272675,7.33878891
20.84181579,-1.253343658,3.009192352,7.876321106
20.85185879,-1.347048798,2.630928955,8.643924866
20.86190179,-1.296603699,2.349214783,9.176068268
20.87194479,-1.275048523,2.268083496,9.441166992
20.88198779,-1.138083344,2.253114624,9.494605865
20.89203079,-0.8728349304,2.32496521,9.26707901
20.90207379,-0.6858737183,2.514022064,8.931027832
20.91211679,-0.5969586182,2.734214172,8.695717163
20.92215979,-0.5757028198,2.84678009,8.607251129
20.93220279,-0.6586303711,2.903362427,8.488547974
20.94224579,-0.8078700256,2.909349976,8.319250031
20.95228879,-0.8881031799,2.87252655,8.079149323
20.96233179,-0.8719367981,2.851121063,7.923922119
20.97237479,-0.8259823608,2.907553711,7.83021698
20.98241779,-0.7086264038,3.057092743,7.82901947
20.99246079,-0.5228627014,3.209625549,7.988587646
21.00250379,-0.3131488037,3.392994232,8.090226288
21.01254679,-0.121098175,3.531156921,8.099506989
21.02258979,-0.002844085693,3.608695679,8.026907959
21.03263279,-0.02694396973,3.585044861,7.998916168
21.04267679,-0.05688171387,3.547472992,8.069718933
21.05271979,-0.1233435059,3.565735016,8.066725159
21.06276279,-0.3213816833,3.541635132,8.121960297
21.07280579,-0.4610412598,3.542233887,8.142767029
21.08284879,-0.4703219604,3.610491943,8.122559052
21.09289179,-0.5152285767,3.766766968,8.061186676
21.10293479,-0.5144801331,3.883973236,7.907007294
21.11297779,-0.5176235962,4.013603668,7.804620209
21.12302079,-0.4270619202,4.103716278,7.911947021
21.13306379,-0.2877017212,4.262236633,8.204438782
21.14310679,-0.2420466614,4.391717377,8.595874786
21.15314979,-0.274379425,4.430337067,8.862769775
21.16319279,-0.4173321533,4.348756714,8.900341644
21.17323579,-0.5158273315,4.225562897,8.954379272
21.18327879,-0.4825964355,4.159250793,9.148525543
21.19332179,-0.3347039795,4.162843323,9.418713684
21.20336479,-0.2386038208,4.182901611,9.744586029
21.21340779,-0.2471360779,4.152365112,10.17284546
21.22345079,-0.3576063538,4.083358612,10.62774948
21.23349379,-0.7143145752,4.04024826,11.05136856
21.24353679,-1.132844238,3.926634521,11.23383911
21.25357979,-1.354682922,3.862118683,11.04583008
21.26362279,-1.386716309,3.92094635,10.6964566
21.27366579,-1.309476929,3.995191956,10.38690033
21.28370879,-1.176553345,4.050277405,10.10174332
21.29375179,-0.8286767578,4.101620636,9.895172882
21.30379479,-0.4046086121,4.169729004,9.846823425
21.31383779,-0.117355957,4.13739624,10.08018814
21.32388079,-0.3119512939,3.843856659,10.79450272
21.33392379,-0.9587562561,3.156036987,11.70071823
21.34396679,-1.631756744,2.379601593,12.26758942
21.35400979,-2.222278748,1.868264923,12.39766891
21.36405279,-2.499202881,1.7504599,12.05398361
21.37409579,-2.306553497,1.95867691,11.22755219
21.38413979,-1.693278809,2.442620544,10.07360184
21.39418279,-1.070124664,3.016976166,9.074878693
21.40422579,-0.4680766296,3.371139679,8.555309143
21.41426879,-0.02035766602,3.385509796,8.478518829
21.42431179,0.1013392639,3.246448975,8.768166504
21.43435479,-0.1249900818,2.998863831,9.393565979
21.44439779,-0.4273612976,2.657423859,9.943073273
21.45444079,-0.6230044556,2.358345795,10.12778915
21.46448379,-0.5815406799,2.349963226,9.998308411
21.47452679,-0.4221221924,2.639461212,9.547445984
21.48456979,-0.3351530457,2.974464569,8.850644989
21.49461279,-0.316741333,3.176394653,8.196654968
21.50465579,-0.4031117249,3.24929306,7.776329041
21.51469879,-0.5804928589,3.227887573,7.469167786
21.52474179,-0.775537262,3.165167999,7.263345795
21.53478479,-1.068627777,3.022664337,7.309449921
21.54482779,-1.412911835,2.855312347,7.523504791
21.55487079,-1.568288727,2.658621368,7.701185303
21.56491379,-1.708397369,2.50983078,7.758516083
21.57495679,-1.772164764,2.421664124,7.635621643
21.58499979,-1.688638458,2.432142334,7.475005646
21.59504279,-1.472487946,2.594255219,7.367080078
21.60508579,-1.070873108,2.911744995,7.263645172
21.61512879,-0.5807922363,3.279081116,7.102879486
21.62517179,-0.3321592712,3.590583344,7.090455322
21.63521479,-0.3134481812,3.654799805,7.267836456
21.64525779,-0.6044430542,3.458408203,7.585326233
21.65530079,-1.102457428,3.065475311,8.096513214
21.66534379,-1.391955414,2.68182312,8.615933075
21.67538679,-1.485361176,2.503543854,8.995843048
21.68542979,-1.376088409,2.575843506,9.180409241
21.69547279,-1.243913269,2.672392731,9.223669281
21.70551679,-1.114432526,2.706222382,9.174721069
21.71555979,-1.087338867,2.80232254,9.182355194
21.72560279,-1.06713089,2.917732544,9.252559204
21.73564579,-0.8897497559,3.1545401,9.355245667
21.74568879,-0.6730004883,3.485052795,9.354497223
21.75573179,-0.5764512634,3.654650116,9.241931305
21.76577479,-0.637224884,3.786525879,9.323062592
21.77581779,-0.813558197,3.865112457,9.5034375
21.78586079,-1.101110229,3.825594635,9.710007935
21.79590396,-1.324745178,3.752845917,9.830207977
21.80594696,-1.405128021,3.731889496,9.786798248
21.81598996,-1.489851837,3.736230469,9.808952179
21.82603296,-1.527723083,3.643573151,10.05713608
21.83607596,-1.563947754,3.466790771,10.3925885
21.84611896,-1.710043945,3.305276642,10.64092209
21.85616196,-1.807491302,3.219804382,10.80093933
21.86620496,-1.808239746,3.244203644,10.84030746
21.87624796,-1.683848419,3.415297852,10.69510941
21.88629096,-1.566043396,3.733236694,10.44453049
21.89633396,-1.472637634,4.078568573,10.09126511
21.90637696,-1.181493073,4.358935547,9.919871521
21.91641996,-0.8972341919,4.45802948,10.00818787
21.92646296,-0.846789093,4.254303131,10.34962784
21.93650596,-1.234033813,3.671415253,11.0084079
21.94654896,-1.814376984,2.788850555,11.83603683
21.95659196,-2.367327118,2.086960144,12.36368958
21.96663496,-2.73571106,1.752555542,12.43509109
21.97667796,-2.439028015,1.923200684,11.58845169
21.98672096,-2.029030609,2.534529419,10.11162277
21.99676396,-1.463955688,3.145558777,8.736881561
22.00680796,-0.9613009644,3.570075989,7.908354492
22.01685096,-0.7749385071,3.725901947,7.520660706
22.02689396,-0.9316625977,3.554658051,7.599846039
22.03693696,-1.448986816,2.985691223,8.195008392
22.04697996,-1.995799713,2.194885712,9.254355469
22.05702296,-2.507884827,1.40527771,10.36833893
22.06706596,-2.869832153,0.6990463257,11.18668716
22.07710896,-2.887944489,0.2905458069,11.58351196
22.08715196,-2.661016388,0.2484832764,11.47498764
22.09719496,-2.249222717,0.5031037903,10.81231567
22.10723796,-1.94580368,0.8565188599,9.96567627
22.11728096,-1.828148346,1.165326691,9.584568787
22.12732396,-1.81243103,1.355880432,9.684860229
22.13736696,-1.788331146,1.421444092,9.734107819
22.14740996,-1.785936127,1.483115845,9.499545593
22.15745296,-1.692380676,1.62636795,9.036708069
22.16749596,-1.483564911,1.720372467,8.47028595
22.17753896,-1.224902802,1.859133911,7.915240173
22.18758196,-0.9060658264,2.06750061,7.49910553
22.19762496,-0.6230044556,2.31792984,7.270830231
22.20766796,-0.4593946838,2.486928406,7.112160187
22.21771096,-0.522563324,2.532733154,7.074139252
22.22775396,-0.803379364,2.424059143,7.209308167
22.23779696,-1.086440735,2.210902405,7.564968567
22.24783996,-1.225501556,2.031575317,7.974067841
22.25788296,-1.359472961,2.011217651,8.240663452
22.26792596,-1.344055023,2.152224426,8.247549133
22.27796896,-1.145268402,2.408790894,8.127498779
22.28801196,-0.9008267212,2.725532227,8.195158081
22.29805496,-0.7628137207,2.989283752,8.337212677
22.30809896,-0.7280859375,3.095263367,8.519832916
22.31814196,-0.7047344971,3.163072357,8.740025024
22.32818496,-0.6670129395,3.346890106,8.937015381
22.33822796,-0.5691165161,3.576662292,9.025780792
22.34827096,-0.4932243347,3.774401093,9.109007721
22.35831396,-0.4083508301,3.877536621,9.261540527
22.36835696,-0.360151062,3.905977478,9.436526642
22.37839996,-0.385897522,3.881278839,9.553882599
22.38844296,-0.3927832031,3.862268372,9.754016418
22.39848596,-0.3225791931,3.868854675,9.875264282
22.40852896,-0.2778222656,3.930676117,10.03498215
22.41857196,-0.2679428101,3.987857208,10.33510803
22.42861496,-0.3704795837,3.956123199,10.61038559
22.43865796,-0.5539979553,3.839216309,10.77833633
22.44870096,-0.8497828674,3.652105408,10.80827408
22.45874396,-1.150357819,3.474275208,10.821297
22.46878696,-1.148112488,3.418890381,10.83072739
22.47882996,-1.021026764,3.460803223,10.90167984
22.48887296,-0.8345146179,3.564238129,11.04104004
22.49891596,-0.4200265503,3.610342255,10.79046112
22.50895896,0.1425036621,3.66587677,10.25622208
22.51900196,0.4710704041,3.798201599,9.934840393
22.52904496,0.5376818848,3.868704987,9.901759186
22.53908796,0.0809815979,3.818858643,10.28466293
22.54913096,-0.909508667,3.40841217,10.98894836
22.55917396,-2.040856018,2.615361328,11.57348282
22.56921696,-3.14870224,1.815873871,11.85968765
22.57926096,-3.914809113,1.243613892,11.96372131
22.58930396,-4.084705811,0.9395960999,11.88139252
22.59934696,-3.476520538,1.028062134,11.62003601
22.60938996,-2.362686768,1.440304871,11.21647522
22.61943296,-1.200802917,1.975442047,10.87353836
22.62947596,-0.3623963928,2.419867859,10.6579866
22.63951896,0.1046324158,2.603086853,10.51982391
22.64956196,0.45984375,2.642754364,10.38375687
22.65960496,0.5288502502,2.91114624,10.02809647
22.66964796,0.7378157043,3.273243256,9.436227264
22.67969096,0.8411009216,3.686533813,8.66562973
22.68973396,0.8740324402,4.049978027,8.059839478
22.69977696,0.8455915833,4.267026672,7.657625885
22.70981996,0.5737568665,4.231400757,7.373067627
22.71986296,0.08008346558,4.054768066,7.26978241
22.72990596,-0.3797602844,3.67635498,7.232809296
22.73994896,-0.8110134888,3.250041504,7.197931824
22.74999196,-1.22041214,2.928809509,7.108417969
22.76003496,-1.700014801,2.662513275,6.988517303
22.77007796,-2.022444305,2.436782684,6.875951385
22.78012096,-2.110461273,2.374212799,6.836882629
22.79016392,-2.203567657,2.427202606,6.831044769
22.80020692,-2.171384583,2.455344086,6.897057495
22.81024992,-2.095791779,2.46417572,7.104526062
22.82029292,-2.021246796,2.513423309,7.379354553
22.83033592,-1.966760101,2.595901794,7.703730011
22.84037892,-1.941462708,2.672093353,8.075556793
22.85042192,-1.863325195,2.680924988,8.391250305
22.86046592,-1.714384918,2.73571106,8.608748016
22.87050892,-1.596579895,2.817141724,8.699309692
22.88055192,-1.565145264,2.846181335,8.632249146
22.89059492,-1.41934845,2.824027405,8.554860077
22.90063792,-1.279539185,2.991678772,8.686885529
22.91068092,-1.092128906,3.127745819,8.719367981
22.92072392,-0.9404942322,3.320544891,8.706045685
22.93076692,-0.8643026733,3.508553925,8.774752808
22.94080992,-0.826431427,3.561094666,8.895401917
22.95085292,-0.7220983887,3.627855835,9.007069702
22.96089592,-0.4873864746,3.834575958,9.02248764
22.97093892,-0.3459306335,4.09174118,9.023984528
22.98098192,-0.3650907898,4.292922821,9.134155426
22.99102492,-0.4793032837,4.271816711,9.259744263
23.00106792,-0.6679110718,4.045637054,9.385632477
23.01111092,-0.8611592102,3.841461639,9.57603653
23.02115392,-0.9859996033,3.706143036,9.776320038
23.03119692,-1.022523651,3.600163422,9.996362457
23.04123992,-1.023571472,3.55944809,10.20847137
23.05128292,-1.122815094,3.528013458,10.46219376
23.06132592,-1.279090118,3.450175323,10.62700104
23.07136892,-1.492396545,3.420836334,10.63089294
23.08141192,-1.64283371,3.574716339,10.52566177
23.09145492,-1.715432739,3.863016815,10.30322433
23.10149792,-1.695374451,4.245172119,9.897268524
23.11154192,-1.559457092,4.683460693,9.354197845
23.12158492,-1.341510315,5.003046112,8.97458725
23.13162792,-1.194515991,5.011129303,8.990154877
23.14167092,-1.173709259,4.536915436,9.420509949
23.15171392,-1.785936127,3.513194275,10.47072601
23.16175692,-2.611469421,2.251468048,12.00862793
23.17179992,-3.258274384,1.291364594,13.14955536
23.18184292,-3.345991974,1.082548828,13.30418381
23.19188592,-2.646047516,1.715582428,12.09754303
23.20192892,-1.791025543,2.8678862,10.09455826
23.21197192,-1.087189178,3.839815063,8.664581909
23.22201492,-0.5297483826,4.164190521,8.197253723
23.23205792,-0.6060896301,3.815266113,8.510701904
23.24210092,-1.314566345,2.861299896,9.626930695
23.25214392,-1.912872162,1.747915192,10.96080688
23.26218692,-2.56252121,0.6459068298,11.92076065
23.27222992,-2.767594757,-0.1035845947,12.31968109
23.28227292,-2.658920746,-0.1740879822,12.29932343
23.29231592,-2.31209198,0.1817221069,11.84831131
23.30235892,-1.722917175,0.7767347717,10.86186264
23.31240192,-1.204994202,1.418600006,9.833501129
23.32244492,-1.077010345,1.852397919,9.316925354
23.33248792,-1.162931671,1.968406677,9.042545929
23.34253092,-1.344803467,1.834135895,8.670270081
23.35257392,-1.400337982,1.82066391,8.37777832
23.36261792,-1.177451477,2.016905823,8.102051697
23.37266092,-0.8358618164,2.330204315,7.740553436
23.38270392,-0.4917274475,2.622247009,7.353458405
23.39274692,-0.305514679,2.824177094,7.054679718
23.40278992,-0.2219883728,2.975961456,6.986122284
23.41283292,-0.2989283752,3.05858963,7.005881195
23.42287592,-0.5839356995,3.016826477,7.080426178
23.43291892,-0.8099656677,2.865790558,7.228019257
23.44296192,-0.8987310791,2.673141174,7.352410583
23.45300492,-0.9265731812,2.612217865,7.522157593
23.46304792,-0.9737251282,2.607876892,7.713609467
23.47309092,-1.156345367,2.511926422,7.996221771
23.48313392,-1.218765564,2.342778168,8.336164856
23.49317692,-1.185834045,2.272873535,8.666078796
23.50321992,-1.058299255,2.423011322,8.867410126
23.51326292,-1.073567505,2.621797943,9.003926239
23.52330592,-1.037642212,2.745291138,9.034762115
23.53334892,-0.9773176575,2.832409973,8.896449738
23.54339192,-0.9259744263,3.017574921,8.628806305
23.55343492,-0.8542735291,3.254232788,8.399483185
23.56347792,-0.5748046875,3.475772095,8.372688904
23.57352092,-0.3893403625,3.696413269,8.474028168
23.58356392,-0.2050735474,3.9454953,8.610993347
23.59360692,-0.2215393066,4.026327209,8.664881287
23.60365092,-0.1642085266,4.063899078,8.674910431
23.61369392,-0.1950444031,4.07662262,8.749006348
23.62373692,-0.005688171387,4.147275696,8.948242035
23.63377992,0.07080276489,4.327351227,9.25420578
23.64382292,0.07723937988,4.415517883,9.669142914
23.65386592,-0.1472937012,4.284989319,9.931846619
23.66390892,-0.2680924988,4.081412659,10.06506958
23.67395192,-0.3915856934,4.008963318,10.10548553
23.68399492,-0.5399272156,4.104464722,10.2068248
23.69403792,-0.707428894,4.196074219,10.50844757
23.70408092,-0.8391549683,4.224515076,10.82189575
23.71412392,-0.873583374,4.318070526,10.90392517
23.72416692,-0.6893165588,4.440815277,10.69765411
23.73420992,-0.4216731262,4.481530609,10.39543259
23.74425292,-0.1898052979,4.43467804,10.29648834
23.75429592,0.01616638184,4.340673523,10.37223083
23.76433892,0.2869532776,4.308191071,10.48988617
23.77438192,0.5010081482,4.319717102,10.5796994
23.78442492,0.4640350342,4.217479706,10.44827271
23.79446796,0.004939727783,3.846251678,10.1683548
23.80451096,-0.7282356262,3.317700806,10.1006955
23.81455396,-1.232237549,2.84678009,10.21730301
23.82459696,-1.663939819,2.660118256,10.19978943
23.83463996,-1.763782196,2.621648254,9.930200043
23.84468396,-1.504371643,2.692451019,9.648186493
23.85472696,-1.249451752,2.83046402,9.527687073
23.86476996,-0.8400531006,2.831511841,9.576335907
23.87481296,-0.3673361206,2.798730011,9.56900116
23.88485596,0.001945953369,2.79768219,9.63097229
23.89489896,0.239052887,2.802921295,9.842632141
23.90494196,0.369282074,2.804867249,10.0276474
23.91498496,0.2020797729,2.907853088,10.11626312
23.92502796,-0.08831634521,2.959944763,10.01267853
23.93507096,-0.3495231628,2.970722351,9.579030304
23.94511396,-0.6782395935,2.994373169,9.002579041
23.95515696,-1.061592407,3.004552002,8.49827774
23.96519996,-1.39240448,2.96263916,8.059390411
23.97524296,-1.613195343,2.905757446,7.742649078
23.98528596,-1.903142395,2.889591064,7.433242493
23.99532896,-1.991758118,2.840493164,7.256609802
24.00537196,-1.898951111,2.851570129,7.106472015
24.01541496,-1.759441223,2.932551727,7.126081238
24.02545796,-1.592687988,3.037932587,7.263196106
24.03550096,-1.379980316,3.159479828,7.483388214
24.04554396,-1.262923737,3.214714966,7.740403748
24.05558696,-1.342558136,3.111130371,8.001610565
24.06562996,-1.567540283,2.984643402,8.247698822
24.07567396,-1.834285583,2.827021179,8.343349915
24.08571696,-1.905238037,2.718945923,8.386310577
24.09575996,-1.841470642,2.822530518,8.390202484
24.10580296,-1.733994141,3.100053406,8.37074295
24.11584596,-1.572929077,3.314407654,8.351283417
24.12588896,-1.444795532,3.328478394,8.333470459
24.13593196,-1.325044556,3.339255981,8.435857544
24.14597496,-1.107995911,3.392994232,8.621621246
24.15601796,-0.9574090576,3.531156921,8.893605652
24.16606096,-0.806073761,3.618425446,9.152716827
24.17610396,-0.7405101013,3.602259064,9.343569946
24.18614696,-0.7372169495,3.584446106,9.498048706
24.19618996,-0.7695497131,3.677851868,9.594148865
24.20623296,-0.6277944946,3.862567749,9.48008606
24.21627596,-0.4640350342,4.11868515,9.108858032
24.22631896,-0.5349874878,4.312831421,8.710386658
24.23636196,-0.58737854,4.386927338,8.503367157
24.24640496,-0.9035211182,4.312831421,8.485554199
24.25644796,-1.085243225,4.089645538,8.628506927
24.26649096,-1.112486572,3.818259888,8.984167328
24.27653396,-1.191671906,3.544628906,9.516759796
24.28657696,-1.317260742,3.202290802,10.04875351
24.29662096,-1.528022461,3.0165271,10.50754944
24.30666396,-1.637893982,3.111429749,10.79435303
24.31670696,-1.6416362,3.419489136,10.73642349
24.32674996,-1.564696198,3.87768631,10.42327469
24.33679296,-1.38776413,4.51296524,10.26954437
24.34683596,-1.02387085,4.898563385,10.36100418
24.35687896,-0.8416996765,4.894372101,10.87054459
24.36692196,-0.9889933777,4.366569672,11.83903061
24.37696496,-1.532064056,3.45765976,12.67743713
24.38700796,-2.297272797,2.678829346,13.17170929
24.39705096,-2.510130157,2.257754974,13.17036209
24.40709396,-1.995650024,2.282902679,12.16310669
24.41713696,-1.564995575,2.991080017,10.32433044
24.42717996,-1.114133148,3.689976654,8.859776001
24.43722296,-0.7963439941,3.889212341,8.00804718
