Time (s),Acceleration x (m/s^2),Acceleration y (m/s^2),Acceleration z (m/s^2),Absolute acceleration (m/s^2)
1.358467,-0.8405021667,-14.57758575,-1.227746887
1.36851,-8.780440979,-18.99699554,-1.243314514
1.378553,-15.90248062,-20.76451996,-1.503473511
1.388596,-9.715546417,-14.03301819,-1.223106537
1.398639,-5.309608612,-10.78612015,-1.536704407
1.408682,-5.516777802,-9.691596222,-2.044747925
1.418725,-3.815864868,-7.962841187,-2.144440613
1.428768,-3.271446991,-6.89645874,-2.726430359
1.438812,-3.559298401,-6.271358643,-2.750380554
1.448855,-4.151017914,-8.616232452,-1.550924835
1.458898,-5.130580902,-11.14567245,-0.4667294312
1.468941,-6.398743744,-12.05203766,1.480421448
1.478984,-2.622546387,-13.54518265,4.139042816
1.489027,0.4489164734,-11.77361664,2.668351135
1.49907,1.391356659,-10.91290649,1.817670135
1.509113,3.839216309,-11.02517303,1.425635376
1.519157,5.397326202,-12.29243774,0.6884184265
1.5292,4.832101593,-11.58396103,3.505859528
1.539243,8.270002441,-8.037535858,2.113005981
1.549286,8.356672211,-7.457791443,-0.3962260437
1.559329,5.193450165,-6.34066452,-1.762734375
1.569372,4.990322571,-5.061574402,-3.576811981
1.579415,6.199508057,-3.44703186,-3.04227356
1.589458,3.694317627,-3.573668518,-2.727927246
1.599502,-0.1564247131,-5.527106323,0.9324110413
1.609545,-4.393363953,-11.48621429,7.578440552
1.619588,-6.258335724,-15.76132416,5.655988312
1.629631,-5.198240204,-12.40141113,-0.3911366272
1.639674,-3.874393158,-8.503666534,0.5110372925
1.649717,-3.050207062,-6.253994751,0.5885760498
1.65976,-1.424886932,-5.769602051,0.6647676086
1.669803,-0.3520678711,-6.803052979,0.5905220032
1.679847,0.162412262,-7.176676025,0.1347198486
1.68989,0.5445675659,-6.594386902,-0.09490264893
1.699933,0.4393363953,-6.138435059,-0.02559677124
1.709976,-0.3047662354,-6.19681366,-0.107177124
1.720019,-0.7432044983,-6.567442932,-0.03951782227
1.730062,-0.2396516418,-5.48534317,0.1645079041
1.740105,-0.1092727661,-4.457430725,0.5017565918
1.750149,0.02320175171,-4.19352951,0.2656974792
1.760192,-0.09969268799,-3.707041168,-0.4194277954
1.770235,0.2574645996,-4.41476944,-1.20050354
1.780278,1.020727386,-6.120173035,-1.505419464
1.790321,1.452579346,-7.440128174,-0.6081852722
1.800364,3.657943268,-9.643995209,1.424737244
1.810407,3.766766968,-10.72399933,2.162702637
1.82045,1.702559509,-8.613837433,0.4249662781
1.830494,0.2055226135,-5.577102356,0.2429447937
1.840537,1.901645508,-6.487958221,1.061592407
1.85058,2.882855072,-9.471703491,0.6283932495
1.860623,2.964136047,-10.39677979,0.03577560425
1.870666,2.264940033,-10.48584457,0.1582209778
1.880709,2.156715088,-11.18908218,1.50706604
1.890752,1.125808868,-10.62191162,3.013533325
1.900796,-0.1293310547,-11.10181366,6.570586395
1.910839,1.949695587,-14.98878067,5.234315186
1.920882,4.025279388,-15.72614731,3.188818817
1.930925,6.397396545,-18.06937454,4.919819183
1.940968,1.105151825,-15.35776337,0.3228785706
1.951011,-4.899311829,-7.436385956,1.517095184
1.961054,-1.303190002,-10.21730301,1.475182343
1.971097,2.100581818,-11.7064064,0.3234773254
1.981141,3.612587585,-12.69899231,-1.073268127
1.991184,2.936443634,-14.3633812,-2.37181778
2.001227,2.41388031,-14.39870773,-3.982318726
2.01127,3.551813965,-20.1880687,-2.124382324
2.021313,0.6512956238,-21.36492142,-2.092498627
2.031356,-3.431464233,-20.27833099,-0.6683601379
2.041399,-5.212310944,-18.2052919,-0.2664459229
2.051442,-5.49237854,-16.65751053,-1.022074585
2.061486,-4.135001221,-17.29443604,-2.20326828
2.071529,0.04505630493,-15.50580551,-2.231559448
2.081572,4.014052734,-10.32253418,-0.3309617615
2.091615,6.552174683,-7.214098206,-0.1802252197
2.101658,8.740923157,-5.274581451,0.07559280396
2.111701,8.038883057,-5.039121094,0.7348219299
2.121744,5.721551971,-5.52516037,-0.1017883301
2.131787,3.303031311,-5.879323883,1.250200195
2.141831,0.2627037048,-6.838678894,1.456022186
2.151874,-1.523082733,-7.506290588,1.304088135
2.161917,-2.986140289,-7.30480957,1.440005493
2.17196,-3.341201935,-6.719227295,1.753154297
2.182003,-2.817441101,-6.550079041,1.931433563
2.192046,-2.508932648,-7.16799408,2.265838165
2.202089,-1.428778839,-7.420369263,2.256258087
2.212132,0.001496887207,-7.468119965,1.890568542
2.222176,1.151106262,-7.697143707,1.417851562
2.232219,1.490450592,-7.978558502,0.940045166
2.2422615,0.8728349304,-8.40352478,0.5105882263
2.2523045,-0.1884580994,-8.86920639,0.4864883423
2.2623475,-1.053658905,-9.080866241,0.7698490906
2.2723905,-1.582658844,-8.97099472,1.218765564
2.2824335,-1.764081573,-8.87160141,1.547032928
2.2924775,-1.409319305,-8.798104248,1.592987366
2.3025205,-0.6765930176,-8.546926575,1.779798889
2.3125635,0.2999761963,-8.290210419,2.130369873
2.3226065,1.271006927,-8.061785431,1.879042511
2.3326495,2.232906647,-7.874824219,1.585652618
2.3426925,3.277284851,-7.780071259,1.701661377
2.3527355,4.489164734,-7.70732254,2.485730896
2.3627785,5.75912384,-7.764054565,3.850892029
2.3728225,6.278543701,-8.180189209,4.795577545
2.3828655,5.613925781,-9.90834549,4.574936371
2.3929085,4.344116364,-11.62826889,5.14016098
2.4029515,2.369722137,-12.15681976,5.489235077
2.4129945,3.966002655,-11.85983734,8.262068939
2.4230375,3.641477509,-10.7362738,10.00938538
2.4330805,2.610271912,-10.31504974,8.042475586
2.4431235,1.323248291,-10.91500214,2.854563904
2.4531675,1.335373077,-12.79494278,-3.000510406
2.4632105,1.282233582,-16.18718857,-7.937244415
2.4732535,-0.9946815491,-20.2901564,-11.05855362
2.4832965,-4.163292389,-22.54177414,-8.670569458
2.4933395,-5.584586792,-19.42570404,-2.428849182
2.5033825,-5.47127243,-12.02644089,3.649261322
2.5134255,-3.321293335,-7.480843506,3.915557556
2.5234685,-1.745370483,-5.743855591,2.180515594
2.5335125,-1.059496765,-5.58009613,3.072510681
2.5435555,-0.9532177734,-5.586233368,4.125121765
2.5535985,-1.232237549,-6.7244664,4.063599701
2.5636415,-2.468217316,-8.812624054,3.420986023
2.5736845,-4.917424164,-11.20300323,1.801054688
2.5837275,-6.327192535,-13.20434143,0.4743635559
2.5937705,-4.616849213,-14.4296933,0.3115022278
2.6038135,-1.704355774,-15.31764679,-0.6857240295
2.6138575,-0.1037342834,-15.97732498,-0.9190887451
2.6239005,0.4694238281,-14.83415222,0.2585124207
2.6339435,0.4472698975,-12.13855774,1.272952881
2.6439865,1.0086026,-9.95040802,1.163979492
2.6540295,0.748742981,-7.594906311,1.429676971
2.6640725,0.08592132568,-5.904621277,2.165247345
2.6741155,-0.1037342834,-4.805007935,1.629810791
2.6841595,-0.7731422424,-4.417164459,1.034648438
2.6942025,-1.05425766,-4.591102753,0.7831713867
2.7042455,-1.146465912,-5.067112885,0.7804769897
2.7142885,-1.094523926,-5.781726837,1.22625
2.7243315,-0.8949888611,-6.538702698,1.518442383
2.7343745,-0.6975494385,-7.326664124,1.456321564
2.7444175,-0.735869751,-8.269703064,0.8523275757
2.7544605,-0.4248165894,-8.981921997,0.7896080017
2.7645035,0.129181366,-9.236392822,1.019230499
2.7745475,0.5909710693,-9.116043091,0.9087602234
2.7845905,0.806073761,-8.924142151,0.3357518005
2.7946335,0.7970924377,-8.955726471,-0.144150238
2.8046765,0.6906637573,-9.180259552,-0.5234614563
2.8147195,0.4480183411,-9.351653137,-0.5275030518
2.8247625,0.02664459229,-9.620643768,-0.2776725769
2.8348055,-0.4382885742,-9.871372375,0.1437011719
2.8448495,-0.816252594,-9.78664856,0.8394543457
2.8548925,-0.9434880066,-9.612560577,1.43222168
2.8649355,-0.8128097534,-9.828262024,1.983225861
2.8749785,-0.6032455444,-9.287137299,2.490820312
2.8850215,0.4983137512,-8.879983978,3.233426056
2.8950645,0.6295907593,-8.353977814,3.392545166
2.9051075,1.107097778,-7.89578064,2.881208496
2.9151505,1.856589203,-7.543114014,1.939816132
2.9251945,2.460433502,-7.439529419,0.9409432983
2.9352375,2.713856506,-8.153544617,0.5941145325
2.9452805,2.584226074,-9.217831421,1.144669647
2.9553235,2.468516693,-10.06491989,2.157912598
2.9653665,2.356100464,-10.51727921,3.066972198
2.9754095,1.794019318,-10.63179108,3.601660309
2.9854525,0.860710144,-10.64421524,3.379073181
2.9954955,0.1035845947,-10.01791763,2.919977875
3.0055385,-0.4014651489,-9.144783325,2.063009949
3.0155825,-0.4311035156,-8.888216858,1.021026764
3.0256255,-0.1664538574,-9.192534027,-0.3835025024
3.0356685,0.04370910645,-10.17434235,-0.7918533325
3.0457115,-0.4346960449,-11.29431335,-0.01975891113
3.0557545,-1.844464417,-13.45102844,-0.1305285645
3.0657975,-3.358416138,-15.72854233,-0.2615061951
3.0758405,-3.715723114,-16.48327286,-0.6852749634
3.0858835,-4.075275421,-16.8104924,-1.595232697
3.0959275,-4.388274536,-16.19616989,-1.762884064
3.1059705,-4.116439819,-15.86835159,-2.155367889
3.1160135,-3.067720642,-15.90592346,-3.425626373
3.1260565,-0.8506809998,-16.5185994,-3.719315643
3.1360995,1.852996674,-15.98555786,-3.050057373
3.1461425,4.653223572,-11.61719193,-2.314487
3.1561855,7.226821747,-8.34858902,-0.8442443848
3.1662285,7.879165192,-7.049889679,1.14197525
3.1762725,6.855743408,-6.605763245,2.031575317
3.1863155,4.999303894,-6.56534729,1.809736633
3.1963585,3.219355316,-6.506369934,1.571282501
3.2064015,1.417252808,-7.564669189,0.7869136047
3.2164445,-0.5074447632,-8.037984924,0.3338058472
3.2264875,-1.727108459,-8.062384186,0.5360353088
3.2365315,-2.395767975,-7.848628693,0.9859996033
3.2465745,-2.802023163,-7.632178802,1.341510315
3.2566185,-3.093018036,-7.655530243,1.459614716
3.2666615,-2.458038483,-7.620952148,1.537003784
3.2767045,-1.278042297,-8.040679321,1.490151215
3.2867475,-0.1335223389,-8.020321655,1.116528168
3.2967905,0.2022294617,-7.715705109,0.572409668
3.3068335,-0.2163002014,-7.629933472,0.3147953796
3.3168765,-1.110241241,-7.657476196,0.4067042542
3.3269205,-1.894909515,-7.712112579,0.5641767883
3.3369635,-2.182611237,-7.580087128,0.7945477295
3.3470065,-2.402503967,-7.399412842,1.009650421
3.3570495,-2.325863342,-7.326215057,1.172811127
3.3670925,-1.904489594,-7.298672333,1.444346466
3.3771355,-1.025517426,-7.309599609,1.75869278
3.3871785,0.01721420288,-7.413034515,1.871408386
3.3972215,1.216969299,-7.619754639,1.807940369
3.4072655,2.57180191,-7.980354767,1.799258423
3.4173085,4.173321533,-8.580905914,1.614243164
3.4273515,5.128784637,-9.170529785,1.37713623
3.4373945,5.894442444,-10.02420456,1.248403931
3.4474375,6.145021362,-10.19425095,2.072140961
3.4574805,5.417833557,-10.58224411,4.032913513
3.4675235,5.529501343,-11.61300064,6.047723694
3.4775665,5.086422729,-11.26961472,6.678362274
3.4876095,4.940925293,-10.56098831,6.595285034
3.4976535,4.563560028,-9.641600189,6.982080688
3.5076965,3.500770111,-9.021439819,7.085515594
3.5177395,2.97431488,-8.88567215,3.776796112
3.5277825,2.076182556,-10.16281631,-0.572409668
3.5378255,1.022523651,-12.38434662,-3.615731049
3.5478685,-0.4655319214,-15.39458679,-6.615942078
3.5579115,-2.616558838,-19.27302155,-9.411828003
3.5679545,-4.604574738,-21.89826233,-6.487359467
3.5779985,-4.159999237,-19.57254868,0.1179547119
3.5880415,-3.25513092,-11.97898956,3.485052795
3.5980845,-1.468895416,-8.112380219,2.469414825
3.6081275,-1.136287079,-7.356901245,2.299518127
3.6181705,-1.350791016,-6.786287842,3.894301758
3.6282135,-1.674567719,-6.635401611,4.164639587
3.6382565,-2.752925262,-7.722890167,3.805985413
3.6483005,-4.777764587,-9.552236023,3.405418396
3.6583435,-6.653663635,-11.43996048,2.516417084
3.6683865,-6.762637024,-12.97157547,2.016905823
3.6784295,-4.309089203,-14.01460648,0.9994715881
3.6884725,-1.006656647,-15.23861115,-0.7014413452
3.6985155,0.227227478,-14.95300507,-0.855920105
3.7085585,0.4884342957,-12.96693512,-0.1797761536
3.7186015,0.7878117371,-11.11214218,0.5348377991
3.7286455,0.707428894,-9.152567139,1.786983948
3.7386885,0.6300398254,-7.384743347,2.256258087
3.7487315,0.2055226135,-5.943390656,1.4837146
3.7587745,-0.2941383362,-5.297932892,0.6610253906
3.7688175,-0.1942959595,-5.422773285,0.3951782227
3.7788605,-0.04460723877,-5.449567566,0.6584806824
3.7889035,0.2734812927,-5.81645462,1.068178711
3.7989465,0.4574487305,-6.754553833,1.454525299
3.8089895,0.5962101746,-7.84309021,1.478176117
3.8190335,0.2281256104,-8.680748291,0.9792636108
3.8290765,-0.09909393311,-9.345815277,0.4173321533
3.8391195,-0.33230896,-9.565857697,0.5361849976
3.8491625,-0.4278103638,-9.22965683,0.7629634094
3.8592055,-0.442180481,-8.862021332,0.67045578
3.8692485,-0.4640350342,-8.683742065,0.5292993164
3.8792915,-0.4257147217,-8.623267822,0.4716691589
3.8893345,-0.4845423889,-8.696914673,0.6012995911
3.8993785,-0.466280365,-8.75693985,0.9184899902
3.9094215,-0.4505630493,-8.81307312,1.405128021
3.9194645,-0.3534150696,-8.892108765,1.792372742
3.9295075,-0.08352630615,-9.01200943,1.949545898
3.9395505,0.3701802063,-9.255552979,1.791025543
3.9495935,0.9117539978,-9.292077026,1.590442657
3.9596365,1.224004669,-9.191935272,1.569785614
3.9696795,1.424737244,-9.006321259,1.919757843
3.9797235,1.75390274,-8.530460815,2.229613495
3.9897665,1.800156555,-8.26895462,2.41388031
3.9998095,1.928888855,-8.250842285,2.368674316
4.0098525,2.225122833,-8.281229095,2.145039368
4.0198955,2.418221283,-8.985514526,2.346370697
4.0299385,2.396666107,-9.933343506,2.727029114
4.0399815,2.201921082,-11.07516907,3.241060181
4.0500245,1.634301453,-11.56031021,3.431763611
4.0600685,1.259929962,-11.1543544,3.377127228
4.0701115,0.9000782776,-10.26475433,2.716700592
4.0801545,-0.02395019531,-9.374106445,1.665436707
4.0901975,-0.6730004883,-8.728199615,0.8605604553
4.1002405,-0.8614585876,-8.526868286,0.4343966675
4.1102835,-1.157542877,-9.014404449,0.1224453735
4.1203265,-1.647174683,-9.910291443,-0.1954934692
4.1303695,-1.806742859,-10.81680634,0.2064207458
4.1404135,-1.635498962,-11.98527649,0.9912387085
4.1504565,-2.075134735,-13.70190674,0.8509803772
4.1604995,-3.366948395,-15.8098233,0.6539900208
4.1705425,-4.522994385,-17.22228607,0.1978884888
4.1805855,-4.697531433,-17.39966721,-0.8396040344
4.1906285,-4.101920013,-16.82710785,-1.571581879
4.2006715,-2.600991211,-15.58319458,-1.836830292
4.2107145,-0.8054750061,-14.20980057,-3.098257141
4.2207575,0.9877958679,-12.91379562,-4.848717041
4.2308015,3.568429413,-11.25105331,-4.491559753
4.24084375,6.476282501,-9.244925079,-2.092049561
4.25088675,9.823322296,-7.706574097,0.9969268799
4.26092975,8.778794403,-7.594606934,1.444346466
4.27097275,6.199508057,-7.242688751,2.035317535
4.28101575,3.900888062,-6.892566833,2.705773315
4.29105875,2.380050659,-7.391329651,1.371747437
4.30110175,0.886456604,-7.900271301,0.3115022278
4.31114575,-0.8318202209,-8.308472443,0.6755451965
4.32118875,-1.949695587,-8.058641968,1.066981201
4.33123175,-2.311642914,-7.658973083,0.9398954773
4.34127475,-2.133663025,-7.424111481,0.9608518982
4.35131775,-1.632056122,-7.781867523,0.659229126
4.36136075,-0.6183641052,-7.479496307,0.6092330933
4.37140375,-0.1157093811,-7.380701752,0.773890686
4.38144675,-0.444276123,-7.472460938,1.15020813
4.39149075,-0.9409432983,-7.515720978,1.06473587
4.40153375,-1.734443207,-7.499554596,0.9428892517
4.41157675,-2.409689026,-7.539521484,1.141376495
4.42161975,-2.61985199,-7.489076385,1.320254517
4.43166275,-2.585273895,-7.307653656,1.632654877
4.44170575,-2.148033142,-7.190297699,1.7106427
4.45174875,-1.235680389,-7.322472839,1.616937561
4.46179175,-0.1791773987,-7.566315765,1.673669586
4.47183575,0.8749305725,-8.006699982,1.966760101
4.48187875,1.804347839,-8.387358398,2.260000305
4.49192175,2.654579773,-9.05407196,2.327060852
4.50196475,3.833677826,-9.599986725,2.252815247
4.51200775,5.09809845,-9.691296844,2.943778381
4.52205075,6.090534668,-9.598040771,3.928730164
4.53209375,6.561305695,-9.333391113,3.927532654
4.54213675,6.075416107,-10.10608429,4.1830513
4.55218075,5.410648499,-10.53000275,5.979016571
4.56222375,5.175637207,-9.987530823,7.629933472
4.57226675,4.660109253,-9.442214813,8.669521637
4.58230975,3.333867188,-9.806706848,7.804919586
4.59235275,1.773062897,-10.99538498,4.110003204
4.60239575,1.01803299,-12.83461029,-1.081501007
4.61243875,0.3893403625,-16.3301413,-5.766907654
4.62248175,-1.512005768,-21.28274231,-9.781409454
4.63252575,-3.598816223,-25.38211761,-9.638606415
4.64256875,-4.61714859,-24.8833548,-5.433550873
4.65261175,-3.585044861,-15.72165665,1.217418365
4.66265475,-1.998344421,-7.882608032,4.626129913
4.67269775,-0.2368075562,-5.448819122,2.291734314
4.68274075,0.2618055725,-5.193150787,2.174378357
4.69278375,-0.6277944946,-5.36364624,2.711760864
4.70282675,-0.9644444275,-6.000721436,2.723885651
4.71287075,-1.736688538,-8.04546936,2.820285187
4.72291375,-3.750600586,-10.66232758,2.512375488
4.73295675,-5.507497101,-13.33561844,1.785636749
4.74299975,-5.489085388,-14.57489136,1.787433014
4.75304275,-2.848875732,-14.5344754,0.5304968262
4.76308575,-0.2552192688,-13.67032242,-1.358275452
4.77312875,0.916993103,-11.91776688,-1.826052704
4.78317175,0.8333171082,-9.905651093,-0.2321672058
4.79321575,0.6878196716,-8.199049988,1.506467285
4.80325875,0.5673202515,-6.788233795,2.499053192
4.81330175,-0.07619155884,-5.579197998,2.570305023
4.82334475,-0.5510041809,-4.788542175,2.021396484
4.83338775,-0.6978488159,-4.597689056,1.159937897
4.84343075,-0.9457333374,-5.000202026,0.6478527832
4.85347375,-0.8470884705,-5.623805237,0.8583151245
4.86351675,-0.5804928589,-6.307583313,1.356928253
4.87356075,-0.1041833496,-6.965016174,1.357676697
4.88360375,0.3088078308,-7.721542969,1.312919769
4.89364675,0.4495152283,-8.576415253,1.327888641
4.90368975,0.277073822,-9.431586914,0.8478369141
4.91373275,0.2755769348,-9.751172333,0.6502478027
4.92377575,0.5179229736,-9.666598206,0.8551716614
4.93381875,0.7032376099,-9.5631633,0.6884184265
4.94386175,0.7503895569,-9.48233139,0.5189707947
4.95390575,0.6459068298,-9.420959015,0.5944139099
4.96394875,0.5099894714,-9.251960449,0.8167016602
4.97399175,0.4128414917,-8.980724487,1.212029572
4.98403475,0.2908451843,-8.829389191,1.723066864
4.99407775,0.1501377869,-8.805588684,1.939816132
5.00412075,-0.009879455566,-8.85633316,2.09324707
5.01416375,-0.05822891235,-9.0190448,2.155218201
5.02420675,0.05239105225,-9.194180603,2.004781036
5.03425075,0.09669891357,-9.323511658,1.798360291
5.04429375,0.1236428833,-9.196276245,1.79611496
5.05433675,0.143102417,-8.85992569,1.829495544
5.06437975,0.2558180237,-8.521180115,1.691632233
5.07442275,0.5888754272,-8.277486877,1.56439682
5.08446575,1.169517975,-8.489296417,1.452579346
5.09450875,1.615440674,-9.339528351,1.614841919
5.10455175,1.816772003,-10.45276337,2.525997162
5.11459475,1.777553558,-11.33862122,3.334915009
5.12463875,1.618733826,-11.64248932,3.813469849
5.13468175,1.582060089,-11.29341522,3.616629181
5.14472475,1.094673615,-10.583741,2.554737396
5.15476775,0.7162605286,-10.02719833,1.444496155
5.16481075,0.890198822,-10.14754807,0.7692503357
5.17485375,1.129551086,-10.77070221,0.7084767151
5.18489675,0.7270381165,-11.68754562,0.1618135071
5.19493975,-0.309256897,-12.29647934,0.2221380615
5.20498375,-0.7399113464,-12.67085083,0.8372090149
5.21502675,-1.080752563,-13.66732864,1.022823029
5.22506975,-2.318079529,-14.68760696,0.2167492676
5.23511275,-3.899540863,-15.4541629,-0.4755610657
5.245155625,-4.695435791,-15.3930899,-1.076860657
5.255198625,-4.588408356,-14.53761887,-1.604513397
5.265241625,-3.702251129,-13.52961502,-2.452050934
5.275284625,-2.630629578,-12.5876239,-3.196452942
5.285328625,-1.861977997,-11.79547119,-3.567082214
5.295371625,0.5026547241,-10.89464447,-2.920726318
5.305414625,3.028053131,-9.644294586,-0.6824308777
5.315457625,5.450166321,-8.434510345,1.584006042
5.325500625,7.712561646,-7.442223816,3.262765045
5.335543625,7.119644623,-7.280559998,3.001109161
5.345586625,2.880010986,-7.756570129,1.833836517
5.355629625,1.692829742,-7.207511902,0.9219328308
5.365673625,0.577199707,-7.132966919,0.3426374817
5.375716625,-0.2061213684,-7.754324799,-0.407303009
5.385759625,-0.8625064087,-8.218060455,-0.4611909485
5.395802625,-1.396745453,-8.123008118,-0.008681945801
5.405845625,-1.570983124,-8.062683563,0.2249821472
5.415888625,-1.270108795,-8.286617889,0.3210823059
5.425931625,-0.8298742676,-8.669521637,0.2420466614
5.435974625,0.02035766602,-8.942703552,0.36389328
5.446018625,0.4843927002,-8.807534637,0.75353302
5.456061625,0.1592687988,-8.417445831,0.9407936096
5.466104625,-0.8869056702,-8.337212677,1.000669098
5.476147625,-1.976789246,-8.105793915,1.322499847
5.486190625,-2.723885651,-7.818990326,1.560504913
5.496233625,-2.987637177,-7.477849731,1.71184021
5.506276625,-2.809956665,-7.214846649,1.831740875
5.516319625,-2.167492676,-7.091353455,2.101330261
5.526363625,-1.305285645,-7.153773651,2.069296875
5.536406625,-0.3733236694,-7.287146301,2.024989014
5.546449625,0.8508306885,-7.436385956,2.018702087
5.556492625,1.999092865,-7.679181061,2.146835632
5.566535625,3.099454651,-8.034093018,2.078727264
5.576578625,4.208648071,-8.444838867,1.892514496
5.586621625,5.028493195,-9.024283905,2.048939209
5.596664625,5.523513794,-9.137897644,2.740052032
5.606708625,5.49477356,-9.182355194,3.163371735
5.616751625,4.87102066,-9.780211945,3.823648682
5.626794625,4.867128754,-10.31594788,5.475912781
5.636837625,4.794829102,-10.62295944,7.170688477
5.646880625,4.745132446,-10.74510544,8.304281158
5.656923625,4.737198944,-10.10758118,8.854836273
5.666966625,3.890858917,-9.62977478,7.523055725
5.677009625,1.850002899,-9.605525208,3.690126343
5.687053625,1.801354065,-11.45837219,-1.22505249
5.697096625,1.139729919,-15.00988678,-4.910688171
5.707139625,-0.5514532471,-18.65929779,-7.054380341
5.717182625,-2.393223267,-22.02953934,-7.204667816
5.727225625,-2.918630676,-23.49334534,-5.597759399
5.737268625,-2.316882019,-19.19458466,-1.112636261
5.747311625,-2.379451904,-10.8584198,2.297871552
5.757354625,-0.7271878052,-7.245083771,2.113005981
5.767398625,0.479153595,-6.411467285,2.289638672
5.777441625,-0.4691244507,-5.977819061,2.232158203
5.787484625,-1.513951721,-5.927523651,2.167642365
5.797527625,-1.93652298,-7.288194122,2.41852066
5.807570625,-3.449875946,-9.451046448,2.924318848
5.817613625,-5.347030792,-11.81957108,2.32960556
5.827656625,-6.177354126,-13.51823868,2.249522095
5.837699625,-3.889212341,-14.28015427,0.8870553589
5.847743625,-1.055006104,-14.00472702,-0.8485853577
5.857786625,0.4867877197,-12.45559845,-1.25199646
5.867829625,0.997375946,-10.42402313,-0.3811074829
5.877872625,0.8598120117,-8.595874786,1.450633392
5.887915625,0.9621990967,-7.27202774,2.553689575
5.897958625,0.4709207153,-6.171815643,2.63856308
5.908001625,-0.3872447205,-5.570965118,2.143093414
5.918044625,-0.9370513916,-5.361251221,1.355581055
5.928088625,-0.9934840393,-5.459297333,0.8720864868
5.938131625,-1.04258194,-5.862409058,0.682281189
5.948174625,-1.128054199,-6.38751709,0.9202862549
5.958217625,-0.7464976501,-7.025789795,1.332079926
5.968260625,-0.1785786438,-7.890391846,1.395997009
5.978303625,0.1881587219,-8.69721405,1.358125763
5.988346625,0.07843688965,-9.330696716,1.145418091
5.998389625,-0.01062789917,-9.698182526,0.8620573425
6.008432625,0.2728825378,-9.69069809,0.8186476135
6.018476625,0.6837780762,-9.610914001,0.679586792
6.028519625,1.031504974,-9.343270569,0.5602848816
6.038562625,1.171763306,-9.056916046,0.5369334412
6.048605625,1.143771515,-8.9792276,0.609382782
6.058648625,1.072220306,-8.937913513,0.8656498718
6.068691625,1.004561005,-8.826994171,1.181193695
6.078734625,0.8427474976,-8.872349854,1.796414337
6.088777625,0.5842350769,-9.054371338,2.183509369
6.098821625,0.1751358032,-9.196575623,2.203867035
6.108864625,-0.06990463257,-9.33967804,2.161654816
6.118907625,-0.04655319214,-9.286688232,2.039658508
6.128950625,0.09160949707,-9.325008545,1.699116669
6.138993625,0.3426374817,-9.265282745,1.608255615
6.149036625,0.5516029358,-9.166188812,1.609453125
6.159079625,0.7863148499,-8.881031799,1.942061462
6.169122625,1.091979218,-8.632249146,2.100132751
6.179166625,1.463356934,-8.895551605,2.036515045
6.189209625,1.936972046,-9.671088867,2.270628204
6.199252625,2.157463531,-10.41474243,2.839595032
6.209295625,1.948348389,-10.79375427,3.592379608
6.219338625,1.374142456,-10.58269318,3.898642731
6.229381625,0.7601193237,-10.14425491,3.402125244
6.23942475,0.6942562866,-9.571096802,2.679877167
6.24946775,0.5673202515,-8.725654907,2.1658461
6.25951175,0.01347198486,-7.777975616,1.516197052
6.26955475,-0.4213737488,-7.345674591,0.8165519714
6.27959775,-0.5060975647,-7.576644287,0.3314108276
6.28964075,-0.9922865295,-8.229436798,-0.1657054138
6.29968375,-1.275198212,-9.365574188,0.07200027466
6.30972675,-0.4617897034,-11.18174744,0.7827223206
6.31976975,-0.3423381042,-13.40073303,0.8708889771
6.32981275,-1.641336823,-16.30738861,0.6899153137
6.33985675,-3.302282867,-18.64896927,0.3679348755
6.34989975,-4.268673248,-19.60488144,-0.7788304138
6.35994275,-4.208648071,-19.65158432,-2.245031433
6.36998575,-3.19555481,-17.99018921,-3.361110535
6.38002875,-2.02663559,-15.66402649,-4.941524048
6.39007175,0.1550775146,-13.12814987,-5.288352814
6.40011475,2.967578888,-10.60724213,-3.776197357
6.41015775,6.412365417,-8.459358673,0.05194198608
6.42020175,9.625284119,-7.263345795,2.943329315
6.43024475,8.809181213,-7.224277039,2.276915131
6.44028775,5.518274689,-6.471043396,2.25236618
6.45033075,3.804338837,-6.387367401,1.200952606
6.46037375,2.062710571,-7.764803009,1.235381012
6.47041675,-0.3412902832,-8.461604004,1.500330048
6.48045975,-2.517315216,-8.030201111,1.956880646
6.49050275,-3.398981781,-7.591313782,1.811832275
6.50054675,-3.364104309,-7.219636688,1.585951996
6.51058975,-2.756966858,-7.028933258,1.254840546
6.52063275,-1.655257874,-7.25690918,0.5394781494
6.53067575,-0.5489085388,-7.839797058,0.1805245972
6.54071875,0.05149291992,-8.65515152,-0.09954299927
6.55076175,0.2519261169,-8.64108078,-0.349972229
6.56080475,-0.214354248,-8.659342804,-0.2517764282
6.57084775,-1.112187195,-8.634793854,0.5158273315
6.58089175,-1.509011993,-8.581654358,0.7210505676
6.59093475,-1.673968964,-8.260572052,0.8427474976
6.60097775,-1.820813599,-7.848029938,1.203347626
6.61102075,-1.536704407,-7.538623352,1.664837952
6.62106375,-0.8243357849,-7.380252686,2.134411469
6.63110675,0.009430389404,-7.329059143,2.471360779
6.64114975,0.8836125183,-7.449109497,2.695594482
6.65119275,1.887125702,-7.489375763,2.910547485
6.66123675,2.912792816,-7.514822845,3.029100952
6.67127975,3.973038025,-7.954608307,2.971470795
6.68132275,5.022805023,-8.156837769,3.544329529
6.69136575,5.792205048,-8.512498169,3.930526428
6.70140875,5.453010406,-9.332193604,3.382815399
6.71145175,4.925507355,-10.15278717,3.597319336
6.72149475,4.768783264,-10.67624863,5.422024841
6.73153775,4.724475403,-10.91245743,7.10946579
6.74158175,4.28019928,-10.62580353,8.284073181
6.75162475,4.336781616,-10.23376877,8.429420929
6.76166775,3.42832077,-9.573342133,6.983278198
6.77171075,2.413281555,-8.651409302,3.210074615
6.78175375,2.37990097,-9.242380371,-1.099763031
6.79179675,1.780397644,-11.77795761,-4.272265778
6.80183975,0.1911524963,-14.95809448,-7.047045593
6.81188275,-1.8884729,-18.68654114,-9.280550995
6.82192675,-3.124901733,-21.72626999,-7.927664337
6.83196975,-3.69401825,-21.82895645,-1.816921692
6.84201275,-5.533243561,-16.13165405,3.186723175
6.85205575,-4.155358887,-10.30382309,2.630180511
6.86209875,-2.224973145,-8.207731934,2.668201447
6.87214175,-2.225871277,-7.439679108,4.149670715
6.88218475,-3.209924927,-7.279661865,3.708238678
6.89222875,-3.976480865,-7.808661804,3.587140503
6.90227175,-4.912933502,-8.931776276,4.186494141
6.91231475,-5.515280914,-10.14874557,3.899989929
6.92235775,-4.61714859,-11.49160309,2.244732056
6.93240075,-2.093097382,-12.7787764,0.4414320374
6.94244375,0.6815327454,-13.52213058,-0.6604266357
6.95248675,2.232756958,-13.37902817,-0.4017645264
6.96252975,2.455793152,-12.16984268,-0.09894424438
6.97257375,1.682052155,-10.10533585,1.210682373
6.98261675,1.451980591,-8.22449707,1.849703522
6.99265975,0.8942404175,-6.872508545,1.489402771
7.00270275,0.2612068176,-5.995182953,0.9098080444
7.01274575,0.1390608215,-5.594466248,0.4236190796
7.02278875,0.2550695801,-5.446873169,0.2055226135
7.03283175,0.2380050659,-5.717210999,0.4637356567
7.04287475,0.4658312988,-6.310726776,1.128203888
7.05291775,0.7441026306,-7.15736618,1.337917786
7.06296175,0.7939489746,-7.929909668,1.491648102
7.07300475,0.6499484253,-8.57207428,1.371597748
7.08304775,0.4815486145,-8.936716003,1.235979767
7.09309075,0.2884501648,-8.88447464,1.105002136
7.10313375,0.4963677979,-8.677455139,0.956660614
7.11317675,0.9541159058,-8.562793579,0.6532415771
7.12321975,1.305285645,-8.605155487,0.5640270996
7.13326275,1.319356384,-8.65155899,0.5501060486
7.14330675,1.275198212,-8.897796936,0.630788269
7.15334975,1.041234741,-9.156459045,0.8972341919
7.16339275,0.6837780762,-9.335337067,1.32459549
7.17343575,0.2959346008,-9.524094543,1.529070282
7.18347875,0.007334747314,-9.62977478,1.658551025
7.19352175,-0.159717865,-9.67423233,1.756746826
7.20356475,-0.4001179504,-9.647887115,1.67905838
7.21360775,-0.3857478333,-9.31857193,1.701511688
7.22365175,-0.2854563904,-9.040599976,1.679806824
7.23369475,-0.1818717957,-8.776100006,1.733545074
7.243738042,-0.1769320679,-8.52177887,1.847907257
7.253781042,0.001945953369,-8.403075714,1.994751892
7.263824042,0.3550616455,-8.402926025,2.204914856
7.273867042,0.8228388977,-8.792116699,2.6701474
7.283910042,1.162632294,-9.456135864,3.183430023
7.293953042,1.116378479,-10.31235535,3.567531281
7.303997042,0.9150471497,-10.80722626,3.909869385
7.314040042,0.955612793,-10.74779984,4.096830597
7.324083042,0.680634613,-10.55649765,3.605402527
7.334126042,0.8681945801,-9.977501678,3.086880798
7.344169042,1.308578796,-9.110354919,2.724634094
7.354212042,1.585652618,-8.392298126,2.007625122
7.364255042,1.168470154,-8.268804932,1.125808868
7.374298042,0.4942721558,-8.565188599,0.3893403625
7.384342042,0.1252894592,-8.977431335,-0.4001179504
7.394385042,0.1832189941,-9.826615448,-0.8283773804
7.404428042,0.7798782349,-11.31916168,-0.2308200073
7.414471042,0.4888833618,-13.14611252,0.3577560425
7.424514042,-1.26022934,-15.23606644,0.5848338318
7.434557042,-3.739972687,-17.45340546,-0.02544708252
7.444600042,-5.078638916,-19.0426506,-1.037642212
7.454643042,-4.768184509,-19.61520996,-2.725232849
7.464687042,-3.618874512,-18.48012039,-4.329895935
7.474730042,-1.992057495,-16.46022079,-4.656516724
7.484773042,-0.102387085,-13.98077682,-4.37255722
7.494816042,1.604513397,-11.5047757,-4.19128418
7.504859042,3.72201004,-9.740394745,-2.417622528
7.514902042,5.161117401,-8.216563568,0.2007325745
7.524945042,6.562802582,-7.078031158,3.166814575
7.534988042,6.023174744,-5.961203613,4.58436676
7.545032042,3.4212854,-6.112089844,4.357588348
7.555075042,1.486408997,-6.640940094,2.893782349
7.565118042,0.1817221069,-6.920558624,1.173110504
7.575161042,-1.20753891,-6.622827759,0.5192701721
7.585204042,-1.506167908,-6.618187408,0.4252656555
7.595247042,-1.523980865,-6.598727875,0.5583389282
7.605290042,-1.403032379,-7.007827148,0.9773176575
7.615334042,-1.555116119,-7.645501099,1.103654938
7.625377042,-1.028211823,-7.829917603,0.6280938721
7.635420042,-0.2553689575,-7.955207062,0.7927514648
7.645463042,0.2868035889,-8.264014893,0.8961863708
7.655506042,0.1971400452,-8.400830383,0.7309300232
7.665549042,-0.3640429688,-8.753646698,0.7849676514
7.675592042,-0.8406518555,-8.561296692,0.856967926
7.685635042,-1.237776031,-8.447084198,0.9265731812
7.695679042,-1.368154907,-8.234077148,1.232237549
7.705722042,-1.311273193,-7.889493713,1.484163666
7.715765042,-0.9533674622,-7.65822464,1.634900208
7.725808042,-0.3412902832,-7.514673157,1.869911499
7.735851042,0.4352947998,-7.334897003,2.143991547
7.745894042,1.392254791,-7.287146301,2.303709412
7.755937042,2.56716156,-7.210505676,2.635120239
7.765980042,3.75015152,-7.056925049,3.010838928
7.776024042,4.755311279,-7.587272186,2.92641449
7.786067042,5.562732239,-7.963889008,3.340902557
7.796110042,5.93470871,-8.422684937,3.560495911
7.806153042,5.472919006,-9.397906952,2.931503906
7.816196042,5.008285217,-10.52341644,3.115471344
7.826239042,4.745132446,-11.48396896,4.479734344
7.836282042,4.47913559,-11.99889816,6.12541214
7.846325042,3.935615845,-12.05458237,7.399263153
7.856369042,3.215613098,-12.00443665,6.578519897
7.866412042,1.944007416,-12.09903992,3.780388641
7.876455042,1.327439575,-12.86664368,0.4370910645
7.886498042,0.5876779175,-15.06527161,-2.52734436
7.896541042,-1.04138443,-18.18238953,-4.971910858
7.906584042,-2.80591507,-20.69296875,-5.436844025
7.916627042,-3.588787079,-20.91196335,-4.248315582
7.926670042,-3.318898315,-16.91108322,-2.198927307
7.936714042,-1.454225922,-10.50919601,1.490899658
7.946757042,-0.3418890381,-6.782845001,3.210373993
7.956800042,1.370100861,-5.361700287,2.693349152
7.966843042,1.561403046,-5.514532471,1.924248505
7.976886042,0.6330335999,-5.810766449,2.155218201
7.986929042,-0.1092727661,-6.853498077,2.667602692
7.996972042,-1.15484848,-8.799900513,2.695295105
8.007016042,-3.241359558,-11.10495712,2.602039032
8.017059042,-5.06995697,-12.96992889,1.835632782
8.027102042,-4.412524109,-13.60535751,1.842368774
8.037145042,-2.167193298,-13.5258728,0.8243357849
8.047188042,-0.4945715332,-12.76575348,-0.8425978088
8.057231042,-0.2101629639,-11.2844339,-0.9951306152
8.067274042,-0.3125500488,-10.02330643,0.2378553772
8.077317042,0.09505233765,-8.938811646,1.80779068
8.087361042,0.3403921509,-7.9016185,2.713257751
8.097404042,0.05822891235,-6.983876953,2.690804443
8.107447042,-0.4014651489,-6.243067474,1.815873871
8.117490042,-0.5828878784,-6.033802643,0.8575666809
8.127533042,-0.5989045715,-6.188431091,0.2902464294
8.137576042,-0.656534729,-6.513554993,0.2993774414
8.147619042,-0.3118016052,-6.80634613,0.6857240295
8.157662042,0.2731819153,-7.171287231,1.0285112
8.167706042,0.6686595154,-7.774682465,0.8619076538
8.177749042,0.8351133728,-8.294850769,0.6313870239
8.187792042,0.9309141541,-8.683292999,1.113235016
8.197835042,1.099763031,-8.961564331,1.005608826
8.207878042,1.18882782,-9.038354645,0.8945397949
8.217921042,1.222807159,-8.982371063,0.780327301
8.227964042,1.169068909,-8.876690826,0.8255332947
8.238007042,1.003513184,-8.803193665,1.030906219
8.248051042,0.7390132141,-8.730594635,1.30932724
8.258094042,0.3414399719,-8.751401367,1.410816193
8.268137042,0.05942642212,-8.8903125,1.727856903
8.278180042,-0.3420387268,-8.817114716,2.080074463
8.288223042,-0.482895813,-8.809929657,2.371668091
8.298266042,-0.2561174011,-8.784183197,2.59530304
8.308309042,0.1519340515,-8.890462189,2.441273346
8.318352042,0.7616162109,-9.0389534,2.173929291
8.328396042,1.272952881,-9.020541687,1.893262939
8.338439042,1.590592346,-9.006021881,1.906285858
8.348482042,1.795366516,-9.08101593,1.878593445
8.358525042,1.668280792,-9.112300873,1.681303711
8.368568042,1.367256775,-9.425299988,1.910626831
8.378611042,1.274599457,-10.01612137,2.72283783
8.388654042,1.24376358,-10.62909668,3.479514313
8.398697042,0.9439370728,-10.9566156,4.066294098
8.408741042,1.154998169,-10.89883575,4.28483963
8.418784042,1.511407013,-10.40396484,3.982019348
8.428827042,1.121617584,-9.525441742,3.138972473
8.438870042,0.7206015015,-8.930279388,2.123933258
8.448913042,0.5340893555,-8.945996704,1.290167084
8.458956042,0.2168989563,-9.323661346,0.4656816101
8.468999042,-0.163460083,-9.902657318,-0.1134640503
8.479042042,-0.09235794067,-10.8186026,0.4569996643
8.489086042,-0.05254074097,-12.32342331,0.8213420105
8.499129042,-0.8104147339,-14.07972107,0.7246430969
8.509172042,-2.649789734,-16.30649048,0.4456233215
8.519215042,-4.559668121,-17.9371994,-0.01721420288
8.529258042,-4.820874939,-18.44599136,-1.438209229
8.539301042,-3.719764709,-17.66057465,-2.618055725
8.549344042,-2.227966919,-15.89843903,-3.472928009
8.559387042,-0.9530680847,-13.92569138,-4.558769989
8.569431042,1.3748909,-11.80235687,-4.819078674
8.579474042,3.592529297,-9.848320312,-3.587589569
8.589517042,5.570965118,-8.144862671,-0.5522016907
8.599560042,8.426726532,-7.370223541,2.345472565
8.609603042,8.037535858,-7.098688202,2.672392731
8.619646042,4.77746521,-6.848857727,2.404449921
8.629689042,1.971400452,-7.155869293,2.109413452
8.639732042,0.2712359619,-7.038812714,1.520987091
8.649776042,-0.3830534363,-7.065307617,1.515448608
8.659819042,-0.9975256348,-7.442523193,1.260828094
8.669862042,-1.960772552,-7.505093079,1.313817902
8.679905042,-2.336790619,-7.187902679,1.792073364
8.689948042,-1.868564301,-7.270979919,1.708097992
8.699991042,-1.157542877,-7.793243866,0.9436376953
8.710034042,-0.3679348755,-8.005053406,0.1240919495
8.720077042,0.2655477905,-8.59078537,0.1513352966
8.730121042,0.2231858826,-9.103768616,0.1553768921
8.740164042,-0.3122506714,-8.805438995,0.3611988831
8.750207042,-1.122964783,-8.645571442,0.6688092041
8.760250042,-1.586999817,-8.46444809,0.6956034851
8.770293042,-1.703307953,-8.054600372,0.9214837646
8.780336042,-1.586550751,-7.68157608,1.361119537
8.790379042,-1.208137665,-7.409142609,1.698517914
8.800423042,-0.6265969849,-7.306156769,1.827998657
8.810466042,0.0722996521,-7.308102722,2.003284149
8.820509042,1.028211823,-7.33414856,2.339934082
8.830552042,2.152224426,-7.420219574,2.632126465
8.840595042,3.207679596,-7.560178528,2.577340393
8.850638042,4.233646088,-7.543862457,2.537523193
8.860681042,4.99271759,-7.883057098,2.300565948
8.870724042,5.542374573,-7.974217529,3.036435699
8.880768042,5.220843201,-8.598718872,3.380719757
8.890811042,4.251309357,-9.898466034,3.587888947
8.900854042,4.161196747,-10.80557968,4.64289505
8.910897042,4.069138184,-11.5645015,5.889353027
8.920940042,3.604953461,-11.89366699,7.247927856
8.930983042,3.643124084,-11.32604736,8.562045135
8.941026042,3.600612488,-10.75333832,8.148904266
8.951069042,3.179687805,-10.26161087,5.023403778
8.961113042,2.792143707,-10.73702225,1.033899994
8.971156042,2.230511627,-13.12021637,-2.387385406
8.981199042,0.5306465149,-16.26861923,-5.397176514
8.991242042,-1.448088684,-20.49313431,-8.140222321
9.001285042,-2.787353668,-23.77715515,-7.66645752
9.011328042,-2.712359619,-20.58848602,-4.033811646
9.021371042,-2.837649078,-12.26968506,0.622256012
9.031414042,-2.35894455,-7.318580933,2.7789711
9.041458042,-0.2398013306,-4.981341248,3.142115936
9.051501042,0.8807684326,-4.093537445,3.60734848
9.061544042,-0.2652484131,-4.270469513,3.873944092
9.071587042,-1.62756546,-5.157075806,2.903961182
9.081630042,-2.430046692,-7.078180847,3.353027344
9.091673042,-4.411027222,-9.705068207,3.060236206
9.101716042,-6.026467896,-12.5186174,1.95403656
9.111759042,-4.442461853,-15.04790771,0.6953041077
9.121803042,-0.970581665,-16.30828674,-0.5831872559
9.131846042,1.179846497,-16.02627319,-1.075513458
9.141889042,1.316212921,-13.79216904,-1.246457977
9.151932042,0.5984555054,-11.39999359,-0.633482666
9.161975042,-0.03712280273,-9.237290955,1.481169891
9.172018042,0.229921875,-7.458988953,2.45953537
9.182061042,-0.2595602417,-6.243516541,2.219284973
9.192105042,-0.6541397095,-5.575156403,1.734293518
9.202148042,-0.8249345398,-5.601351929,0.9547146606
9.212191042,-1.288819885,-6.120622101,0.4837939453
9.222234042,-1.382824402,-6.858437805,0.3643423462
9.232277042,-1.012644196,-7.462731171,0.7077282715
9.242320125,-0.4317022705,-7.909552002,1.260528717
9.252363125,0.03951782227,-8.277486877,1.454824677
9.262406125,0.3972738647,-8.50187027,1.54568573
9.272450125,0.5125341797,-8.625962219,1.365759888
9.282493125,0.7747888184,-8.714428253,0.9882449341
9.292536125,1.042132874,-8.691076813,0.6060896301
9.302579125,1.325343933,-8.670569458,0.2601589966
9.312622125,1.387614441,-8.614436188,0.1151106262
9.322665125,1.262324982,-8.646020508,0.07574249268
9.332708125,0.946481781,-8.667425995,0.2865042114
9.342751125,0.7357200623,-8.650511169,0.6638694763
9.352795125,0.4547543335,-8.753796387,1.376088409
9.362838125,0.2043251038,-8.858279114,2.102976837
9.372881125,0.1969903564,-9.094487915,2.631827087
9.382924125,0.3754193115,-9.311835938,2.777474213
9.392967125,0.8214916992,-9.539362793,2.602637787
9.403010125,1.189426575,-9.640402679,2.281256104
9.413053125,1.457668762,-9.530531158,1.993704071
9.423096125,1.820514221,-9.112151184,1.793869629
9.433140125,1.991608429,-8.810528412,1.463506622
9.443183125,1.906884613,-8.848699036,1.234632568
9.453226125,1.728305969,-9.279503174,1.687590637
9.463269125,1.57607254,-9.989327087,2.782264252
9.473312125,1.594633942,-10.35756134,3.929777985
9.483355125,1.46021347,-10.39333694,4.434079285
9.493398125,1.560953979,-10.30382309,4.092789001
9.503441125,1.300046539,-9.989925842,3.155887299
9.513485125,0.3704795837,-9.348359985,1.928589478
9.523528125,-0.01466949463,-8.920998688,1.129700775
9.533571125,0.2457888794,-9.151369629,0.8547225952
9.543614125,0.3725752258,-9.794282684,0.9213340759
9.553657125,-0.0809815979,-10.91230774,0.2986289978
9.563700125,-0.3290158081,-12.23390945,0.7228468323
9.573743125,-0.2896476746,-13.43097015,1.026864624
9.583786125,-0.8455915833,-14.6247377,0.4818479919
9.593830125,-2.700234833,-15.84200638,0.324225769
9.603873125,-4.504133606,-16.85060898,-0.3586541748
9.613916125,-4.826114044,-16.78145279,-1.623823242
9.623959125,-3.888014832,-15.82913315,-2.767445068
9.634002125,-2.461631012,-14.46606766,-3.480562134
9.644045125,-1.272952881,-13.2100296,-4.011657715
9.654088125,0.2966830444,-11.92315567,-4.006568298
9.664131125,2.729573822,-10.32567764,-2.253264313
9.674175125,4.777764587,-8.847651215,0.06915618896
9.684218125,7.100185089,-7.733667755,2.63856308
9.694261125,7.904163208,-7.158863068,3.796105957
9.704304125,4.892725525,-7.078629913,1.441203003
9.714347125,2.471959534,-6.722071381,0.4628375244
9.724390125,1.70944519,-6.929689636,0.6643185425
9.734433125,0.4725672913,-7.742349701,0.093256073
9.744476125,-0.8216413879,-7.789351959,-0.1649569702
9.754520125,-1.538500671,-7.590565338,0.3878434753
9.764563125,-1.612147522,-7.557783508,0.646355896
9.774606125,-1.278191986,-7.937094727,0.4052073669
9.784649125,-0.742306366,-8.007747803,0.3062631226
9.794692125,-0.09295669556,-7.936945038,0.3769161987
9.804735125,-0.1369651794,-8.483308868,0.7114704895
9.814778125,-0.3044668579,-8.29589859,0.9915380859
9.824822125,-0.8113128662,-8.045619049,0.962049408
9.834865125,-1.401385803,-8.000113678,1.041683807
9.844908125,-1.959275665,-7.848029938,1.18763031
9.854951125,-2.202519836,-7.550897827,1.395997009
9.864994125,-2.041604462,-7.294181671,1.602268066
9.875037125,-1.410067749,-7.225025482,1.685794373
9.885080125,-0.5842350769,-7.169341278,1.850451965
9.895123125,0.3516188049,-7.287595367,2.005679169
9.905167125,1.257235565,-7.497009888,2.420616302
9.915210125,2.388433228,-7.655380554,2.717449036
9.925253125,3.446133728,-7.652985535,2.67838028
9.935296125,4.330794067,-8.027806091,2.002835083
9.945339125,4.861141205,-8.499924316,1.515598297
9.955382125,5.126389618,-8.627608795,1.95403656
9.965425125,5.086273041,-9.018595734,2.568508759
9.975469125,4.498445435,-9.783205719,3.23297699
9.985512125,4.223317566,-10.73537567,4.527634735
9.995555125,4.452640686,-11.34341125,6.445296936
10.00559813,4.638853455,-11.41900406,8.671766968
10.01564113,4.845423889,-10.64975372,9.5923526
10.02568412,3.853287048,-10.17374359,7.986042938
10.03572713,2.29802124,-10.57296341,4.059857483
10.04577012,1.573976898,-11.95653625,-0.2691403198
10.05581413,1.014590149,-14.99491791,-4.521796875
10.06585713,-0.7705975342,-19.24802353,-8.063432007
10.07590012,-2.826721802,-23.12391357,-8.46085556
10.08594313,-4.109254761,-24.11784668,-5.772595825
10.09598613,-3.298989716,-18.63444946,-1.235530701
10.10602913,-2.025737457,-10.37657181,2.399959259
10.11607213,-0.8036787415,-6.358178101,3.278482361
10.12611513,0.1149609375,-5.339246979,3.246748352
10.13615913,-0.333356781,-5.146896973,3.122207336
10.14620213,-1.035247192,-4.853806458,2.94856842
10.15624513,-1.336570587,-5.915847931,3.197201385
10.16628813,-2.275717621,-7.915389862,3.589385834
10.17633112,-3.719165955,-10.79959213,2.42091568
10.18637413,-3.360661469,-13.4622551,0.9839039612
10.19641713,-1.131197662,-14.82576965,0.4912783813
10.20646112,0.8005352783,-15.02620285,-1.071920929
10.21650413,1.464404755,-13.64921631,-1.438209229
10.22654712,0.9339079285,-11.33502869,-0.9211843872
10.23659013,0.3351530457,-9.580227814,0.2561174011
10.24663267,0.2198927307,-8.265362091,2.318528595
10.25667567,0.1056802368,-7.135661316,2.990181885
10.26671867,-0.5065466309,-6.130651245,2.586770782
10.27676167,-0.9497749329,-5.421875153,1.912572784
10.28680567,-1.08344696,-5.37651947,1.216520233
10.29684867,-1.193168793,-5.838608551,0.7978408813
10.30689167,-1.275048523,-6.753356323,0.7250921631
10.31693467,-0.904119873,-7.534581757,1.091230774
10.32697767,-0.1299298096,-8.098908234,1.489702148
10.33702067,0.3486250305,-8.362959137,1.57727005
10.34706367,0.6012995911,-8.667126617,1.326691132
10.35710667,0.647403717,-8.837322693,1.154399414
10.36715067,0.6686595154,-8.997339935,1.016985168
10.37719367,1.02147583,-9.018595734,0.928818512
10.38723667,1.269959106,-8.938212891,0.6827302551
10.39727967,1.432670746,-8.890462189,0.4987628174
10.40732267,1.560804291,-8.99210083,0.4040098572
10.41736567,1.529519348,-9.127269745,0.4430786133
10.42740867,1.238524475,-9.156459045,0.6730004883
10.43745267,0.9839039612,-9.020541687,1.112636261
10.44749567,0.6189628601,-8.902137909,1.584155731
10.45753867,0.3085084534,-8.876690826,1.861678619
10.46758167,0.2016307068,-8.905730438,2.125879211
10.47762467,0.1408570862,-8.959019623,2.138303375
10.48766767,0.1133143616,-8.884923706,2.012864227
10.49771067,0.09145980835,-8.818162537,1.782343597
10.50775367,0.2957849121,-8.834927673,1.396895142
10.51779767,0.492026825,-8.931776276,1.1572435
10.52784067,0.7720944214,-8.801247711,1.32459549
10.53788367,1.234033813,-8.622818756,1.593885498
10.54792667,1.540147247,-9.004824371,1.981878662
10.55796967,1.804647217,-9.746531982,2.956501923
10.56801267,2.013013916,-10.40142014,3.750450897
10.57805567,1.988464966,-11.14073273,4.169878693
10.58809867,2.087109833,-11.56644745,4.237987061
10.59814267,2.040856018,-11.81702637,3.631598053
10.60818567,1.773062897,-11.8272052,2.470612335
10.61822867,1.711241455,-11.66748734,1.45437561
10.62827167,1.916764069,-11.5710878,0.5998027039
10.63831467,1.644180908,-11.43606857,-0.02424957275
10.64835767,0.6277944946,-11.46765289,-0.5297483826
10.65840067,-0.556842041,-11.64458496,-0.5489085388
10.66844467,-1.38536911,-11.82825302,-0.01077758789
10.67848767,-2.022593994,-12.10218338,0.1701960754
10.68853067,-3.065175934,-12.41413467,0.172591095
10.69857367,-4.414320374,-13.11767166,0.4569996643
10.70861667,-5.483247528,-13.75833939,0.3318598938
10.71865967,-5.604196014,-13.85878052,-0.7315287781
10.72870267,-4.549938354,-13.26855789,-1.173858948
10.73874567,-3.152145081,-12.27133163,-1.312021637
10.74878967,-1.052611084,-11.5034285,-1.319655762
10.75883267,1.195114746,-10.73582474,-0.7288343811
10.76887567,4.149670715,-9.393715668,0.2772235107
10.77891867,8.278534698,-8.635542297,1.309476929
10.78896167,8.710835724,-7.930209045,-0.5852828979
10.79900467,7.465275879,-6.675667877,-2.718197479
10.80904767,5.595963135,-7.272626495,-0.8707392883
10.81909167,3.607198792,-8.108039246,-0.4552033997
10.82913467,1.500330048,-8.328381042,0.288899231
10.83917767,-0.8178991699,-8.542136536,2.199526062
10.84922067,-1.853745117,-8.555907898,2.688409424
10.85926367,-1.668729858,-8.350534973,2.213896179
10.86930667,-1.557960205,-8.644673309,1.918560333
10.87934967,-0.8843609619,-8.444838867,1.899549866
10.88939267,-0.16615448,-8.153394928,1.762734375
10.89943667,0.1880090332,-8.083789673,1.485660553
10.90947967,0.2183958435,-7.974965973,1.050964508
10.91952267,-0.2402503967,-7.955805817,0.6623725891
10.92956567,-0.993633728,-7.886200562,0.6945556641
10.93960867,-1.778002625,-7.843688965,0.935255127
10.94965167,-2.063459015,-7.643405457,1.15140564
10.95969467,-2.034569092,-7.353907471,1.395398254
10.96973767,-1.756896515,-7.202272797,1.653162231
10.97978167,-1.214274902,-7.108417969,1.917362823
10.98982467,-0.5613327026,-7.120842133,2.169738007
10.99986767,0.2841091919,-7.232509918,2.231709137
11.00991067,1.204245758,-7.323670349,2.149679718
11.01995367,2.079326019,-7.390581207,1.986668701
11.02999667,3.241209869,-7.472760315,2.005679169
11.04003967,4.384083252,-7.844587097,2.345771942
11.05008367,5.298082581,-8.109087067,3.404819641
11.06012667,5.763913879,-8.52761673,3.6986586
11.07016967,5.664520569,-9.928104401,3.619622955
11.08021267,5.562432861,-10.83896027,4.887785797
11.09025567,5.4982164,-11.39310791,6.236481171
11.10029867,5.205125885,-11.74801987,7.377857666
11.11034167,4.471501465,-11.28907425,8.618328094
11.12038467,3.708687744,-11.2498558,7.869585114
11.13042867,1.466500397,-11.38083344,4.080514526
11.14047167,1.058748322,-12.42161911,-0.6911128235
11.15051467,1.059646454,-15.350728,-4.426145782
11.16055767,-0.2564167786,-19.04085434,-7.100634155
11.17060067,-2.239043884,-22.93141388,-8.493188324
11.18064367,-3.238964539,-24.32202209,-5.81301178
11.19068667,-3.042123871,-18.04826843,-1.612147522
11.20072967,-2.512525177,-9.812844086,2.496807861
11.21077367,-1.826052704,-5.988297272,4.158951416
11.22081667,0.4064048767,-4.878355408,2.939886475
11.23085967,0.4869374084,-4.742737427,3.295247498
11.24090267,-0.5851332092,-4.869673462,2.902913361
11.25094563,-1.282682648,-6.431375885,2.155218201
11.26098862,-2.671494598,-8.816515961,2.413131866
11.27103163,-4.563260651,-11.65790726,1.820963287
11.28107463,-4.483476562,-14.06580002,1.004411316
11.29111862,-2.075883179,-15.31914368,0.4605921936
11.30116163,0.1407073975,-15.29549286,-0.6050418091
11.31120463,0.9885443115,-13.43680801,-0.8713380432
11.32124763,1.156345367,-11.12232101,-0.6679110718
11.33129063,0.5179229736,-9.040450287,1.231189728
11.34133362,0.3872447205,-7.478149109,3.073408813
11.35137663,0.03023712158,-6.214027863,3.376528473
11.36142063,-0.7167095947,-5.164560242,3.048710175
11.37146363,-1.088237,-4.869972839,2.436632996
11.38150663,-1.254241791,-5.30990799,1.574126587
11.39154962,-1.21577179,-6.087091827,1.054407349
11.40159263,-1.025816803,-6.830745392,1.105151825
11.41163563,-0.2402503967,-7.456294556,1.419647827
11.42167863,0.6950047302,-8.021968231,1.55032608
11.43172163,1.29405899,-8.469836884,1.473535767
11.44176563,1.596130829,-8.7522995,0.8481362915
11.45180863,1.338666229,-8.836723938,0.5993536377
11.46185163,1.168619843,-8.647667084,0.6198609924
11.47189463,1.131347351,-8.461753693,0.1926493835
11.48193763,1.193917236,-8.409063263,0.1327738953
11.49198062,1.148262177,-8.522227936,0.1613644409
11.50202363,1.055006104,-8.658294983,0.5477110291
11.51206663,0.90681427,-8.829688568,0.9672885132
11.52211062,0.7087760925,-8.882229309,1.559906158
11.53215363,0.6194119263,-9.101074219,2.071991272
11.54219662,0.4746629333,-9.350605316,2.544708252
11.55223963,0.1975891113,-9.457932129,2.800675964
11.56228263,0.1553768921,-9.563612366,2.633174286
11.57232563,0.4068539429,-9.483229523,2.249971161
11.58236863,0.697250061,-9.236841888,1.673519897
11.59241162,0.9949809265,-8.915160828,1.342258759
11.60245563,1.246757355,-8.47612381,1.15365097
11.61249863,1.371747437,-8.286617889,1.063837738
11.62254162,1.534908142,-8.507558441,1.367705841
11.63258463,1.832489319,-9.246871033,1.937870178
11.64262762,1.819017334,-9.995913391,2.924468536
11.65267063,1.708696747,-10.2054776,4.145778809
11.66271363,1.711690521,-10.20802231,4.952301636
11.67275663,1.217568054,-10.18242554,4.593198395
11.68280063,0.5972579956,-9.94337265,3.494034119
11.69284363,0.3354524231,-8.909772034,2.960992584
11.70288663,0.1733395386,-7.986492004,2.380649414
11.71292963,-0.2386038208,-7.905211029,1.889371033
11.72297263,-0.6122268677,-8.694669342,1.07536377
11.73301563,-0.8701405334,-9.564510498,-0.02784210205
11.74305862,-0.6084846497,-10.45246399,-0.0549357605
11.75310163,0.4589456177,-12.06401276,0.8649014282
11.76314463,1.097368011,-14.17986282,0.9463320923
11.77318862,-0.3010240173,-16.6048201,0.8759783936
11.78323163,-2.405497742,-18.67815857,-0.1002914429
11.79327463,-3.219954071,-19.47779572,-1.673070831
11.80331763,-2.846929779,-18.81467468,-3.720213776
11.81336063,-2.072290649,-17.07499237,-5.033881989
11.82340363,-0.8616082764,-14.98803223,-5.468877411
11.83344663,0.8399034119,-12.69734573,-5.129832458
11.84348962,2.861000519,-10.74480606,-2.697241058
11.85353363,4.062252502,-9.076225891,1.050066376
11.86357663,5.644611969,-7.87587204,4.059408417
11.87361962,6.752907257,-7.422315216,4.586911469
11.88366263,4.630770264,-7.424859924,4.623136139
11.89370562,1.477128296,-8.572822723,3.218157806
11.90374863,-0.1230441284,-8.578959961,0.7934999084
11.91379163,-0.5046006775,-7.870333557,0.185464325
11.92383562,-0.7092251587,-7.977810059,-0.4240681458
11.93387863,-1.433269501,-7.903714142,-0.5599855042
11.94392163,-1.618883514,-7.68861145,-0.2477348328
11.95396463,-1.3841716,-7.716902618,-0.250279541
11.96400763,-0.4532574463,-7.789501648,-0.475411377
11.97405062,0.1279838562,-7.831863556,-0.2665956116
11.98409363,-0.5230123901,-8.192463684,0.169896698
11.99413662,-1.087937622,-8.507259064,0.4064048767
12.00418062,-1.221310272,-7.939340057,0.8228388977
12.01422363,-1.538500671,-7.362739105,1.304237823
12.02426662,-1.823507996,-7.194788361,1.402433624
12.03430963,-2.13426178,-7.109316101,1.571132813
12.04435263,-2.151026917,-6.972201233,2.003882904
12.05439563,-1.760189667,-7.026538239,2.207309875
12.06443863,-0.8906478882,-7.051236877,2.375709686
12.07448163,0.2866539001,-6.996450806,2.637664948
12.08452563,1.496737518,-6.938072205,2.942580872
12.09456863,2.802921295,-7.051835632,2.853516083
12.10461163,3.958218842,-7.163353729,2.652933197
12.11465463,5.128934326,-7.78575943,2.461631012
12.12469762,6.083948364,-8.26551178,3.227588196
12.13474063,5.969286804,-8.828491058,3.364253998
12.14478363,5.160518646,-9.758207703,3.546125793
12.15482663,5.11680954,-10.71846085,5.069208527
12.16487063,5.249433746,-11.22665405,6.566993866
12.17491363,5.021906891,-11.3202095,7.812553711
12.18495663,4.803361359,-10.97427887,8.186027069
12.19499963,4.182302856,-10.10099487,7.024292908
12.20504263,3.396137695,-9.108408966,4.204606476
12.21508563,2.922073517,-9.197773132,0.7261399841
12.22512862,2.098486176,-11.20450012,-1.901196442
12.23517163,0.4092489624,-14.02014496,-4.299359436
12.24521554,-1.291663971,-17.08112961,-6.003266144
12.25525854,-2.100132751,-20.50481003,-6.834038544
12.26530154,-2.001487885,-23.04098602,-5.10737915
12.27534454,-2.418370972,-19.76474899,-0.8012837219
12.28538754,-3.545077972,-11.94186676,2.611469421
12.29543054,-1.259630585,-7.562423859,3.396437073
12.30547354,0.0730480957,-6.18618576,3.796704712
12.31551654,-0.7614665222,-5.474116516,3.633693695
12.32556054,-1.871857452,-5.139113159,2.776875458
12.33560354,-2.394720154,-6.095624084,3.465293884
12.34564654,-3.436104584,-7.97885788,4.451892242
12.35568954,-4.963677979,-10.67115921,3.244503021
12.36573254,-4.650080109,-12.82697617,2.324216766
12.37577554,-2.433040466,-14.36218369,1.198856964
12.38581854,0.3565585327,-15.05060211,-0.1233435059
12.39586154,1.865570526,-14.39601334,-1.059496765
12.40590554,1.594035187,-12.40829681,-0.9280700684
12.41594854,1.285227356,-10.37881714,0.597557373
12.42599154,1.394649811,-8.805888062,1.822759552
12.43603454,0.7972421265,-7.58218277,1.577569427
12.44607754,-0.08921447754,-6.623127136,0.7194039917
12.45612054,-0.5266049194,-6.010451202,0.1974394226
12.46616354,-0.7673043823,-5.96045517,-0.09385482788
12.47620654,-1.22505249,-6.264323273,0.1062789917
12.48625054,-1.358724518,-6.543642426,0.690813446
12.49629354,-1.007105713,-6.828200684,1.25903183
12.50633654,-0.4314028931,-7.329208832,1.437011719
12.51637954,-0.190254364,-7.806715851,1.383872223
12.52642254,-0.2104623413,-8.272397461,1.144519958
12.53646554,-0.1442999268,-8.640182648,0.9830058289
12.54650854,0.1369651794,-8.800648956,0.7375163269
12.55655154,0.4168830872,-8.954528961,0.5155279541
12.56659554,0.8267308044,-9.023236084,0.5125341797
12.57663854,0.9595046997,-8.947194214,0.4876858521
12.58668154,0.8460406494,-8.80019989,0.5626799011
12.59672454,0.4911286926,-8.624914398,0.7385641479
12.60676754,0.145796814,-8.50531311,1.291364594
12.61681054,0.003293151855,-8.818611603,1.748364258
12.62685354,-0.07080276489,-9.17232605,2.630479889
12.63689654,-0.01032852173,-9.419911194,3.039429474
12.64694054,0.4466711426,-9.494156799,2.891387329
12.65698354,1.052760773,-9.502838745,2.461331635
12.66702654,1.410816193,-9.419611816,1.830693054
12.67706954,1.558708649,-9.067094879,1.488953705
12.68711254,1.51754425,-8.464597778,1.437760162
12.69715554,1.219813385,-8.327782288,1.290466461
12.70719854,0.7625143433,-8.803493042,1.435514832
12.71724154,0.4300556946,-9.699829102,2.270029449
12.72728554,0.3492237854,-10.2731369,3.550466766
12.73732854,0.4583468628,-10.40635986,4.794080658
12.74737154,0.4661306763,-10.32717453,5.307662659
12.75741454,0.4058061218,-10.27598099,4.522994385
12.76745754,0.5911207581,-9.919871521,3.755091248
12.77750054,0.6685098267,-9.105714569,3.025508423
12.78754354,0.8041278076,-8.414751434,1.921105042
12.79758654,1.072070618,-8.410260773,0.5174739075
12.80763054,1.484163666,-9.056167603,-0.776585083
12.81767354,1.741927643,-10.26086243,-1.717229004
12.82771654,1.982028351,-12.04275696,-1.375639343
12.83775954,1.565744019,-13.78243927,-0.5566923523
12.84780254,-0.4059558105,-15.56208847,-0.4038601685
12.85784554,-3.036735077,-17.1236412,-0.4933740234
12.86788854,-5.065466309,-18.34974152,-1.071920929
12.87793154,-5.775290222,-18.67276978,-1.613644409
12.88797554,-5.681435394,-17.76251266,-1.996398468
12.89801854,-4.083208923,-15.8589212,-2.425406342
12.90806154,-1.903890839,-13.84695511,-2.393372955
12.91810454,0.5613327026,-11.94845306,-2.222727814
12.92814754,3.120710449,-10.16985168,-2.161654816
12.93819054,5.294939117,-9.048683167,-1.189725952
12.94823354,6.902745667,-7.918832703,0.1853146362
12.95827654,7.598349152,-7.071295166,1.906585236
12.96832054,4.673880615,-7.514373779,1.322948914
12.97836354,3.321443024,-6.900500336,0.7412585449
12.98840654,2.82103363,-5.971981201,1.627715149
12.99844954,1.786834259,-6.574777679,0.9128018188
13.00849254,0.6598278809,-7.138355713,0.2221380615
13.01853554,-1.126557312,-7.21828949,0.7914042664
13.02857854,-1.331780548,-7.288942566,1.394949188
13.03862154,-1.517993317,-7.595056,1.61828476
13.04866554,-1.237177277,-7.600295105,1.357227631
13.05870854,-0.630788269,-8.269104309,1.183289337
13.06875154,0.05239105225,-8.769663391,1.379830627
13.07879454,0.2508782959,-8.401129761,1.401685181
13.08883754,-0.3700305176,-8.473429413,0.988843689
13.09888054,-0.845741272,-8.466843109,0.8722361755
13.10892354,-1.30348938,-8.182733917,1.083896027
13.11896654,-1.758094025,-7.877219238,1.426533508
13.12901054,-1.776805115,-7.512427826,1.647773438
13.13905354,-1.620829468,-7.210355988,1.84985321
13.14909654,-1.215472412,-6.986870728,1.982926483
13.15913954,-0.5679190063,-6.824308777,2.259251862
13.16918254,0.3694317627,-6.817273407,2.30041626
13.17922554,1.36785553,-6.79586792,2.462678833
13.18926854,2.467618561,-6.647526398,2.839894409
13.19931254,3.748205566,-6.790628815,3.061134338
13.20935554,4.780458984,-7.154073029,3.20139267
13.21939854,5.700146484,-7.442074127,3.343447266
13.22944154,6.221961365,-8.433312836,3.013832703
13.23948454,5.756279755,-9.996212769,2.697390747
13.24952742,5.206024017,-10.76261902,3.511098633
13.25957042,5.001848602,-11.25748993,4.569996643
13.26961342,4.361779633,-11.8590889,5.427413635
13.27965742,4.25789566,-11.85355042,6.561605072
13.28970042,4.251309357,-11.36302048,7.545359344
13.29974342,3.095263367,-11.36646332,6.356381836
13.30978642,1.984722748,-11.98123489,3.024011536
13.31982942,1.658251648,-13.59203522,-0.773890686
13.32987242,0.8988807678,-16.10006973,-3.741020508
13.33991542,-0.7997868347,-18.71049133,-5.411097565
13.34995842,-2.31089447,-20.86331451,-5.471721497
13.36000242,-2.560425568,-20.10394363,-4.067042542
13.37004542,-1.844314728,-14.52309906,-1.046324158
13.38008842,-1.7305513,-9.370214539,1.003513184
13.39013142,-0.8538244629,-6.314768372,2.635569305
13.40017442,1.440753937,-4.953050079,2.851420441
13.41021742,1.314416656,-4.992567902,2.605631561
13.42026042,-0.1881587219,-5.090015259,2.807262268
13.43030342,-1.177301788,-6.18154541,2.761158142
13.44034742,-2.309996338,-8.209079132,3.317700806
13.45039042,-4.227359161,-10.8557254,3.000660095
13.46043342,-5.628744965,-13.3267868,2.206711121
13.47047642,-4.239334259,-14.70362366,1.625469818
13.48051942,-1.197958832,-14.98144592,0.003592529297
13.49056242,0.4171824646,-13.84291351,-1.721869354
13.50060542,0.3403921509,-11.79367493,-1.450034637
13.51064842,0.08337661743,-10.14530273,0.5665718079
13.52069242,0.4590953064,-8.968150635,2.131268005
13.53073542,0.6735992432,-8.028554535,3.101250916
13.54077842,0.2351609802,-7.126081238,2.815794525
13.55082142,-0.09639953613,-6.402635651,2.007176056
13.56086442,-0.227227478,-6.352938995,0.9533674622
13.57090742,-0.316741333,-6.771468658,0.04415817261
13.58095042,-0.3632945251,-7.3774086,-0.1553768921
13.59099342,-0.02694396973,-7.887098694,0.4040098572
13.60103742,0.5827381897,-8.293054504,0.7994874573
13.61108042,1.057999878,-8.540789337,0.9060658264
13.62112342,1.24032074,-8.741970978,0.6499484253
13.63116642,1.120569763,-8.76277771,0.8433462524
13.64120942,1.059796143,-8.700656891,1.055604858
13.65125242,1.142723694,-8.541088715,0.8442443848
13.66129542,1.225501556,-8.47732132,0.7722441101
13.67133842,1.210233307,-8.396788788,0.7387138367
13.68138242,1.162183228,-8.372838593,0.6765930176
13.69142542,1.025816803,-8.277486877,0.7849676514
13.70146842,0.8833131409,-8.253536682,1.047371979
13.71151142,0.639919281,-8.364006958,1.320703583
13.72155442,0.3820056152,-8.48660202,1.764231262
13.73159742,0.2812651062,-8.624465332,2.320175171
13.74164042,0.3650907898,-8.812324677,2.656525726
13.75168342,0.490380249,-8.956774292,2.769241333
13.76172742,0.5254074097,-9.131760406,2.510878601
13.77177042,0.7185058594,-9.149273987,2.010768585
13.78181342,0.7219487,-8.997489624,1.490151215
13.79185642,0.6840774536,-8.799152069,1.291963348
13.80189942,0.7030879211,-8.607251129,1.03898941
13.81194242,0.456101532,-8.748108215,1.019529877
13.82198542,0.4215234375,-9.26243866,1.428180084
13.83202842,0.5388793945,-10.05983047,2.339934082
13.84207242,0.6331832886,-10.61442719,3.482657776
13.85211542,0.7438032532,-10.81920135,4.608616333
13.86215842,0.7909552002,-11.02023331,5.013075256
13.87220142,1.334774323,-11.03235809,4.672234039
13.88224442,1.696871338,-10.5160817,4.267775116
13.89228742,1.5726297,-9.551487579,3.514691162
13.90233042,1.258133698,-8.608897705,2.046244812
13.91237342,1.102756805,-8.279732208,0.8758287048
13.92241742,1.001417542,-8.338260498,0.09340576172
13.93246042,0.3920347595,-8.714877319,-0.7596702576
13.94250342,0.03233276367,-9.519454193,-0.7951464844
13.95254642,0.1862127686,-10.88207062,0.2043251038
13.96258942,-0.09744735718,-12.69225632,0.65758255
13.97263242,-1.420695648,-14.90016495,1.187330933
13.98267542,-3.687282257,-17.4873848,1.023122406
13.99271842,-5.011129303,-19.06959457,0.07858657837
14.00276242,-4.769831085,-19.15431839,-1.560355225
14.01280542,-3.260220337,-17.52869888,-2.51102829
14.02284842,-1.310225372,-15.6306459,-3.273692322
14.03289142,0.5186714172,-13.4423465,-4.151017914
14.04293442,2.858605499,-11.27754822,-3.824397125
14.05297742,5.142855377,-9.461524658,-2.174228668
14.06302042,7.466922455,-8.039930878,-0.3882925415
14.07306342,7.913443909,-7.458689575,0.4254153442
14.08310742,6.26117981,-7.046895905,0.6947053528
14.09315042,4.166286163,-6.680308228,1.819316711
14.10319342,2.832709351,-7.401508484,2.4724086
14.11323642,1.024768982,-7.692653046,1.604064331
14.12327942,-0.3255729675,-7.798183594,1.460063782
14.13332242,-2.003284149,-7.678282928,2.05462738
14.14336542,-2.6210495,-7.276219025,2.066153412
14.15340842,-2.395468597,-7.055727539,1.766177216
14.16345242,-1.780547333,-7.089856567,1.229842529
14.17349542,-0.9446855164,-7.142097931,1.015488281
14.18353842,-0.2761756897,-7.652985535,1.030906219
14.19358142,0.3399430847,-8.208929443,0.8434959412
14.20362442,0.6059399414,-8.118517456,0.5733078003
14.21366742,0.2242337036,-8.227041779,0.2462379456
14.22371042,-0.5447172546,-8.273145905,0.2383044434
14.23375342,-1.137484589,-8.18363205,0.5767506409
14.24379742,-1.149309998,-7.902067566,1.120270386
14.25384117,-0.8583151245,-7.654931488,1.669029236
14.26388417,-0.3309617615,-7.390132141,2.15057785
14.27392717,0.4390370178,-7.202871552,2.599045258
14.28397017,1.243314514,-7.021299133,3.032394104
14.29401317,2.201771393,-6.910828857,3.148103485
14.30405617,3.226390686,-6.850055237,3.007246399
14.31410017,4.243226166,-7.150480499,2.702330475
14.32414317,5.101840668,-7.479047241,2.749632111
14.33418617,5.694608002,-8.039481812,3.022814026
14.34422917,6.00491272,-9.023535461,2.709066467
14.35427217,5.610632629,-10.31460068,2.889890442
14.36431517,5.36244873,-11.17201767,4.534520416
14.37435817,5.395380249,-11.65775757,6.008505249
14.38440117,5.417085114,-11.5591127,7.414681091
14.39444517,5.360053711,-11.03086121,8.086334381
14.40448817,4.867877197,-10.36160294,6.832691345
14.41453117,2.918630676,-10.08557693,3.403173065
14.42457417,2.424059143,-10.78447357,-0.9361532593
14.43461717,1.889520721,-12.58298355,-3.976181488
14.44466017,0.43409729,-15.05599091,-5.235961761
14.45470317,-1.95643158,-18.22744583,-6.584806824
14.46474617,-3.810625763,-21.65352127,-7.63008316
14.47479017,-3.727698212,-22.2675444,-4.940027161
14.48483317,-2.980601807,-16.30798737,0.8985813904
14.49487617,-2.060016174,-9.255103912,4.453987885
14.50491917,-0.6018983459,-5.834866333,4.426894226
14.51496217,0.2423460388,-5.062622223,5.126239929
14.52500517,-0.129181366,-5.08866806,4.356989594
14.53504817,-1.784139862,-5.095853119,3.64596817
14.54509117,-2.597398682,-6.33018631,4.238885193
14.55513517,-3.505709839,-8.469238129,4.218976593
14.56517817,-4.631818085,-11.33113678,1.906435547
14.57522117,-3.974983978,-14.08106827,0.2787203979
14.58526417,-1.194515991,-16.06324631,-0.2579136658
14.59530717,0.8491841125,-16.86467972,-1.082997894
14.60535017,1.4837146,-15.49173477,-0.6944059753
14.61539317,1.097218323,-12.92801605,-0.06182144165
14.62543617,0.5743556213,-10.34423904,1.4438974
14.63548017,0.4927752686,-8.274642792,2.544708252
14.64552317,0.2043251038,-6.801107025,2.04534668
14.65556617,-0.09774673462,-5.691614227,1.323697357
14.66560917,0.05328918457,-5.350922699,0.6583309937
14.67565217,0.1547781372,-5.492977295,-0.03652404785
14.68569517,-0.05448669434,-5.984854431,-0.3463796997
14.69573817,-0.173638916,-6.659351807,0.1242416382
14.70578117,-0.1318757629,-7.184908905,0.7388635254
14.71582517,0.1639091492,-7.701634369,1.135388947
14.72586817,0.4867877197,-8.115074615,1.382075958
14.73591117,0.5667214966,-8.33212326,1.332978058
14.74595417,0.6617738342,-8.394693146,1.074465637
14.75599717,1.037791901,-8.41879303,0.7990383911
14.76604017,1.387315063,-8.432564392,0.520916748
14.77608317,1.527124329,-8.501720581,0.2532733154
14.78612617,1.442849579,-8.689729614,0.01751358032
14.79617017,1.246907043,-8.867260437,0.001496887207
14.80621317,1.008452911,-8.938212891,0.126486969
14.81625617,0.832868042,-9.074130249,0.6424639893
14.82629917,0.5029541016,-9.056017914,1.294208679
14.83634217,0.229921875,-9.111702118,1.865420837
14.84638517,0.05313949585,-9.216035156,2.421514435
14.85642817,-0.0628692627,-9.398056641,2.70292923
14.86647117,0.07214996338,-9.63336731,2.671943665
14.87651517,0.2755769348,-9.697583771,2.370171204
14.88655817,0.8110134888,-9.612111511,1.915117493
14.89660117,1.265917511,-9.335486755,1.737886047
14.90664417,1.622775421,-8.755442963,1.705553284
14.91668717,1.782792664,-7.892337799,1.650617523
14.92673017,1.735341339,-7.619305573,1.584604797
14.93677317,1.549278259,-8.388106842,2.223625946
14.94681617,1.02147583,-9.592053223,3.38042038
14.95686017,0.5083428955,-10.40022263,4.435725861
14.96690317,0.2474354553,-10.76785812,4.93538681
14.97694617,0.6679110718,-10.70034851,4.403393097
14.98698917,1.016386414,-10.46488815,3.093018036
14.99703217,0.7125183105,-9.767488403,1.785636749
15.00707517,0.5390290833,-8.936117249,0.6875202942
15.01711817,0.6893165588,-8.622519379,-0.259410553
15.02716117,0.5578898621,-8.701255646,-0.7355703735
15.03720517,0.1363664246,-9.207502899,-0.8840615845
15.04724817,-0.3863465881,-10.19919067,-0.3914360046
15.05729117,-0.6959028625,-11.43546982,0.3068618774
15.06733417,-1.350042572,-13.02710999,0.7773335266
15.07737717,-2.572849731,-14.92127106,1.202599182
15.08742017,-4.326004028,-17.00897964,1.353934479
15.09746317,-5.586832123,-18.47577942,0.9083111572
15.10750617,-5.01846405,-18.61918121,0.0260458374
15.11755017,-2.814746704,-17.41987518,-1.012943573
15.12759317,0.01422042847,-15.60040878,-2.601290588
15.13763617,2.440075836,-13.95547943,-4.15969986
15.14767917,4.70606369,-12.02808746,-4.812342682
15.15772217,6.368207245,-10.23616379,-4.155658264
15.16776517,7.813601532,-8.302035828,-1.945204926
15.17780817,8.543633423,-7.239395599,-0.8036787415
15.18785217,7.714208221,-6.654861145,0.3736230469
15.19789517,4.862488403,-7.467820587,1.491348724
15.20793817,2.244432678,-7.71435791,1.379381561
15.21798117,0.2649490356,-7.834408264,2.07573349
15.22802417,-0.8743318176,-7.600295105,2.462379456
15.23806717,-1.73519165,-7.521708527,2.465073853
15.24810967,-2.455643463,-7.276219025,2.743644562
15.25815267,-2.303559723,-6.907086639,2.393372955
15.26819567,-1.909429321,-6.830446014,1.868414612
15.27823967,-1.298250275,-6.691534882,1.505419464
15.28828267,-0.7333250427,-7.353159027,1.060694275
15.29832567,-0.185464325,-7.745193787,0.7098239136
15.30836867,-0.1933978271,-7.864944763,0.4346960449
15.31841167,-0.7062313843,-8.176896057,0.2977308655
15.32845467,-1.31980545,-8.41639801,0.4299060059
15.33849767,-1.641785889,-8.344547424,0.6566844177
15.34854167,-1.520987091,-7.958799591,1.149459686
15.35858467,-1.208137665,-7.508086853,1.677561493
15.36862767,-0.6975494385,-7.160659332,2.195634155
15.37867067,0.05104385376,-6.92804306,2.828218689
15.38871367,0.9810598755,-6.881938934,3.107986908
15.39875667,2.121238861,-6.994055786,2.966980133
15.40879967,3.205284576,-7.035070496,3.131338348
15.41884267,4.307592316,-7.416776733,2.990630951
15.42888667,5.365592194,-7.460635529,3.262016602
15.43892967,6.111042023,-7.812853088,3.005300446
15.44897267,6.180946655,-8.733588409,2.434687042
15.45901567,5.741909637,-9.935588837,2.276466064
15.46905867,5.442981262,-10.66352509,3.533551941
15.47910167,5.145699463,-11.08744354,5.011129303
15.48914467,4.563709717,-11.06334366,6.214626617
15.49918767,4.178860016,-10.88970474,6.820267181
15.50923167,4.029919739,-10.77788727,6.555767212
15.51927467,2.508184204,-11.15615067,4.129911804
15.52931767,1.731299744,-12.2000798,0.168848877
15.53936067,1.293759613,-13.60625565,-2.98135025
15.54940367,0.5095404053,-15.50400925,-3.835174713
15.55944667,-0.7500901794,-18.3114212,-4.186194763
15.56948967,-2.350262604,-21.0399472,-4.624034271
15.57953267,-3.054098969,-21.91248276,-4.455185394
15.58957667,-1.981279907,-16.6127536,-0.8443940735
15.59961967,-2.070195007,-9.457333374,2.892734528
15.60966267,-1.095272369,-5.902226257,3.008593597
15.61970567,0.1823208618,-5.220394135,2.602488098
15.62974867,0.349972229,-5.268593903,2.058070221
15.63979167,-0.05463638306,-5.04076767,2.280657349
15.64983467,-0.5275030518,-6.011199646,2.618205414
15.65987867,-1.444346466,-8.121361542,3.181334381
15.66992167,-3.19780014,-10.92024124,2.679128723
15.67996467,-3.850293274,-13.5007251,1.501377869
15.69000767,-2.307301941,-14.97021927,1.338366852
15.70005067,-0.3486250305,-15.12829056,0.367635498
15.71009367,0.5813909912,-13.83198624,-1.302142181
15.72013667,0.2793191528,-11.79876434,-1.461261292
15.73017967,-0.04640350342,-9.888287201,0.3005749512
15.74022367,0.07289840698,-8.55800354,1.870510254
15.75026667,-0.2134561157,-7.591164093,2.481539612
15.76030967,-0.7973918152,-6.531667328,1.981429596
15.77035267,-1.119971008,-6.097420349,1.41695343
15.78039567,-1.292562103,-6.273603973,0.9312135315
15.79043867,-1.371747437,-6.904392242,0.7035369873
15.80048167,-1.19466568,-7.523953857,0.8399034119
15.81052467,-0.8909472656,-8.120164032,1.156345367
15.82056867,-0.2767744446,-8.716523895,1.37369339
15.83061167,0.3252735901,-9.035809937,1.392703857
15.84065467,0.5499563599,-9.029073944,1.464704132
15.85069767,0.7804769897,-9.027277679,1.088087311
15.86074067,0.852177887,-8.916957092,0.8116122437
15.87078367,0.8815168762,-8.853189697,0.4646337891
15.88082667,0.8527766418,-8.778644714,0.2215393066
15.89086967,0.9725276184,-8.695866852,0.1251397705
15.90091367,1.120420074,-8.743168488,0.1257385254
15.91095667,1.241817627,-8.909622345,0.2526745605
15.92099967,1.337019653,-9.058562622,0.356408844
15.93104267,1.324146423,-9.174721069,0.6563850403
15.94108567,1.230441284,-9.276659088,0.9476792908
15.95112867,1.076860657,-9.463320923,1.149160309
15.96117167,0.9024732971,-9.645641785,1.26486969
15.97121467,0.8056246948,-9.757010193,1.489253082
15.98125867,0.8860075378,-9.756561127,1.77500885
15.99130167,0.9086105347,-9.610764313,2.163900146
16.00134467,0.8208929443,-9.292526093,2.437082062
16.01138767,0.765358429,-8.807085571,2.534679108
16.02143067,0.7300318909,-8.152047729,2.360291748
16.03147367,0.9482780457,-7.300618286,1.761536865
16.04151667,1.277892609,-6.711293793,0.8068222046
16.05155967,1.797462158,-7.064708862,0.01781295776
16.06160367,2.273322601,-8.4059198,0.1910028076
16.07164667,2.887196045,-9.899962921,1.491797791
16.08168967,2.881807251,-10.6566394,2.8678862
16.09173267,1.937421112,-10.82324295,3.6389328
16.10177567,1.561103668,-10.7787854,4.135599976
16.11181867,1.616338806,-10.39243881,4.103267212
16.12186167,1.282233582,-9.536518707,3.579506378
16.13190467,1.018332367,-8.780590668,2.638114014
16.14194867,1.190624084,-8.658744049,1.59478363
16.15199167,0.9785151672,-9.098828888,0.5977070618
16.16203467,0.03382965088,-10.21730301,0.4643344116
16.17207767,-0.9804611206,-11.46660507,0.2595602417
16.18212067,-1.496438141,-12.58956985,0.6433621216
16.19216367,-1.782642975,-13.70564896,0.9635462952
16.20220667,-2.528392181,-14.7774202,1.34794693
16.21225067,-3.731141052,-16.11174545,1.103654938
16.22229367,-3.495381317,-16.71349411,-0.4098477173
16.23233667,-2.517614594,-16.45962204,-2.24652832
16.24237967,-1.200802917,-15.66357742,-3.879183197
16.25242312,0.7752378845,-14.49241287,-4.980293427
16.26246613,2.862497406,-12.8331134,-5.158123627
16.27250913,4.647086334,-10.69271439,-3.482657776
16.28255213,6.725214844,-9.066346436,-1.02027832
16.29259613,8.264613647,-7.551795959,0.9680369568
16.30263913,8.785380707,-6.900799713,1.20753891
16.31268213,4.437372437,-7.129973145,2.635419617
16.32272513,1.499880981,-7.38204895,2.871329041
16.33276812,-0.2302212524,-7.479496307,1.677561493
16.34281113,-1.875150604,-7.379504242,1.293759613
16.35285412,-2.932102661,-7.353608093,2.185455322
16.36289713,-2.525997162,-7.647596741,2.835852814
16.37294113,-1.998943176,-8.065677338,2.287243652
16.38298412,-0.3273692322,-8.46325058,1.82186142
16.39302713,0.9946815491,-8.851393433,1.308429108
16.40307013,1.17939743,-9.779014435,0.8595126343
16.41311313,1.536854095,-10.28421387,0.5173242188
16.42315613,1.712139587,-9.899663544,0.5968089294
16.43319913,0.800684967,-9.840237122,1.011296997
16.44324213,-0.01152603149,-9.413773956,1.514849854
16.45328613,-0.4430786133,-9.051527252,1.512305145
16.46332913,-0.8020321655,-8.746611328,1.654060364
16.47337213,-0.8653504944,-8.54048996,1.871109009
16.48341512,-0.5575904846,-8.505911865,1.884580994
16.49345813,-0.1004411316,-8.480913849,1.74926239
16.50350113,0.4580474854,-8.407266998,2.103425903
16.51354413,1.220262451,-8.245453491,2.639910278
16.52358813,1.891915741,-8.015681305,2.805615692
16.53363112,2.27931015,-7.904013519,2.808310089
16.54367413,2.619402924,-7.726632385,2.943329315
16.55371713,2.997965698,-7.552394714,3.07385788
16.56376013,3.088078308,-7.49910553,3.176244965
16.57380313,3.001707916,-7.368876343,3.294049988
16.58384612,2.653981018,-7.580386505,3.026107178
16.59389013,2.398612061,-7.923622742,2.975961456
16.60393313,2.334395599,-8.325536957,3.404669952
16.61397612,2.328557739,-8.727750549,4.186045074
16.62401913,2.116897888,-9.411378937,4.946463776
16.63406212,2.228565674,-10.02300705,5.817502441
16.64410513,2.400558014,-10.28810577,6.025719452
16.65414813,2.908002777,-10.24873764,5.330714722
16.66419113,2.544558563,-10.22763153,4.039200439
16.67423513,1.899849243,-10.40486298,2.365081787
16.68427813,1.190175018,-11.45268402,0.4860392761
16.69432113,0.359103241,-13.23203384,-1.189127197
16.70436413,0.03053649902,-15.01991592,-2.384241943
16.71440713,0.1573228455,-16.53147263,-2.544708252
16.72445013,-0.2968327332,-17.31419495,-2.394869843
16.73449312,-0.2897973633,-16.56350601,-2.287093964
16.74453713,0.4529580688,-13.88138351,-1.591191101
16.75458013,0.89394104,-10.75154205,0.02694396973
16.76462312,0.6659651184,-8.374185791,1.653910675
16.77466613,0.3447331238,-6.51624939,2.676284637
16.78470913,-0.549357605,-5.803282013,3.110232239
16.79475213,-1.015488281,-6.571334839,3.407214661
16.80479513,-2.112556915,-8.426427155,3.813769226
16.81483813,-4.098926239,-10.90377548,3.377276917
16.82488213,-5.223836975,-13.1104866,2.83974472
16.83492513,-5.07579483,-14.38867859,3.03523819
16.84496813,-3.835923157,-13.94619873,2.289039917
16.85501113,-2.465971985,-12.18121902,0.4219725037
16.86505412,-1.676962738,-10.54572006,-0.8054750061
16.87509713,-1.221459961,-9.428742828,-0.5240602112
16.88514012,-0.795894928,-8.699010315,0.2140548706
16.89518313,-0.2034269714,-8.00460434,1.413809967
16.90522713,0.4002676392,-7.236551514,2.608325958
16.91527012,0.4724176025,-6.908433838,2.897225189
16.92531313,0.1365161133,-6.773713989,2.246977386
16.93535613,-0.1999841309,-6.677464142,1.408121796
16.94539913,-0.3089575195,-6.682852936,0.9877958679
16.95544213,-0.2342628479,-6.862030334,0.716559906
16.96548512,-0.07559280396,-7.334597626,0.3885919189
16.97552913,0.06406677246,-7.824528809,0.2032772827
16.98557213,0.2725831604,-8.213120728,0.2844085693
16.99561513,0.2025288391,-8.828041992,0.02185455322
17.00565813,0.3745211792,-9.326355743,-0.02664459229
17.01570112,0.732127533,-9.48592392,0.4176315308
17.02574413,1.087937622,-9.560169525,0.5749543762
17.03578713,1.283730469,-9.422904968,0.6929090881
17.04583013,1.25319397,-9.181157684,0.9110055542
17.05587413,1.137185211,-8.97458725,1.157842255
17.06591713,0.910556488,-8.856782227,1.421144714
17.07596013,0.6201603699,-8.769064636,1.688189392
17.08600313,0.3351530457,-8.880582733,1.803449707
17.09604613,0.1850152588,-9.055868225,1.930236053
17.10608913,0.07828720093,-9.332193604,2.26179657
17.11613212,-0.04011657715,-9.454638977,2.383643188
17.12617613,-0.01826202393,-9.431586914,2.434687042
17.13621913,0.2312690735,-9.347910919,2.449356537
17.14626212,0.6587800598,-9.164542236,2.439327393
17.15630513,0.9725276184,-8.997339935,2.140399017
17.16634812,1.188678131,-8.652457123,1.789229279
17.17639113,1.279539185,-8.585546265,1.665885773
17.18643413,1.360969849,-8.945098572,1.747316437
17.19647713,1.277293854,-9.515262909,1.899549866
17.20652113,1.17475708,-10.2147583,2.392474823
17.21656413,1.116827545,-10.89314758,2.95096344
17.22660713,0.969533844,-11.61449753,3.44478653
17.23665013,0.7801776123,-11.92899353,3.857478333
17.24669312,1.059945831,-11.76762909,3.679049377
17.2567355,1.340761871,-11.11333969,3.329975281
17.2667785,0.7746391296,-10.31639694,2.737657013
17.2768215,0.7020401001,-9.716294861,1.567689972
17.2868655,0.9461824036,-9.260343018,0.7833210754
17.2969085,1.212778015,-8.777596893,0.1694476318
17.3069515,1.350491638,-8.555159454,-0.5141807556
17.3169945,0.7836204529,-8.892557831,-1.125808868
17.3270375,0.1094224548,-9.634415131,-1.197360077
17.3370805,-0.3192860413,-11.0335556,-0.8020321655
17.3471235,-0.8481362915,-12.70138733,-0.4984634399
17.3571675,-2.240540771,-14.438974,-0.09789642334
17.3672105,-4.210893402,-16.30424515,-0.1673519897
17.3772535,-5.409600677,-17.29638199,-0.6078858948
17.3872965,-5.497318268,-17.32886444,-0.9851014709
17.3973395,-3.968996429,-16.24212433,-2.037413177
17.4073825,-1.902393951,-14.75915817,-2.868484955
17.4174255,-0.01601669312,-12.86065613,-3.263513489
17.4274685,1.9681073,-10.76995377,-2.980452118
17.4375125,3.846551056,-8.922196198,-1.991758118
17.4475555,6.908733215,-6.924001465,-0.9827064514
17.4575985,9.62977478,-6.249204712,0.7613168335
17.4676415,6.94331131,-6.587650909,-0.06406677246
17.4776845,4.734953613,-7.372917938,-0.222437439
17.4877275,2.792293396,-7.670648804,0.7795788574
17.4977705,0.3879931641,-7.594756622,1.220112762
17.5078145,-1.62292511,-7.824079742,2.124681702
17.5178575,-2.042053528,-7.918982391,2.16464859
17.5279005,-2.192939758,-7.567812653,1.908531189
17.5379435,-2.216889954,-7.179520111,2.009870453
17.5479865,-1.859732666,-7.231013031,2.030377808
17.5580295,-1.321152649,-7.806266785,2.037263489
17.5680725,-0.3632945251,-7.874075775,1.546134796
17.5781165,0.3770658875,-8.090076599,0.9698332214
17.5881595,0.5394781494,-8.360115051,0.417481842
17.5982025,0.1016386414,-8.608448639,0.05867797852
17.6082455,-0.5981561279,-8.641380157,0.0426612854
17.6182885,-0.8729846191,-8.517886963,0.4990621948
17.6283315,-0.9563612366,-8.304879913,1.132844238
17.6383745,-0.9178912354,-8.049660645,1.421144714
17.6484185,-0.5230123901,-7.712411957,1.732796631
17.6584615,0.2790197754,-7.397915955,2.033670959
17.6685045,1.249152374,-7.164850616,2.043101349
17.6785475,2.136806488,-6.936874695,2.088756409
17.6885905,3.090772705,-6.921157379,2.524799652
17.6986335,4.072131958,-7.15152832,2.958747253
17.7086765,5.138364716,-7.257507935,3.642076263
17.7187195,5.804479523,-8.240364075,3.435505829
17.7287635,6.001769257,-9.609716492,2.702480164
17.7388065,5.9826091,-10.47342041,3.860322418
17.7488495,5.677393799,-11.62931671,6.19905899
17.7588925,4.687951355,-12.61905853,7.639363861
17.7689355,4.076173553,-12.16580109,8.775800629
17.7789785,4.018693085,-11.13279922,9.472901001
17.7890215,3.855682068,-10.54093002,6.915469208
17.7990655,2.440674591,-10.79674805,1.467548218
17.8091085,1.453627167,-12.12957642,-3.07266037
17.8191515,1.108295288,-14.78206055,-5.962101746
17.8291945,-0.07469467163,-18.21397385,-8.530161438
17.8392375,-2.287992096,-21.04204285,-9.178463287
17.8492805,-3.700754242,-21.4460527,-6.59229126
17.8593235,-3.448678436,-16.2120369,0.3760180664
17.8693675,-3.01293457,-9.855355682,3.512445831
17.8794105,-1.563947754,-6.893614655,1.77740387
17.8894535,-0.5098397827,-6.261928253,3.177891541
17.8994965,-0.4375401306,-6.10789856,3.771856384
17.9095395,-1.174008636,-6.673123169,2.76490036
17.9195825,-2.013313293,-8.094417572,2.87956192
17.9296255,-3.517385559,-9.963131561,2.824177094
17.9396695,-5.097050629,-11.99904785,1.440454559
17.9497125,-3.882775726,-13.91850632,0.3950285339
17.9597555,-0.9744735718,-14.82023117,-0.4110452271
17.9697985,0.1249900818,-14.01999527,-1.069376221
17.9798415,0.6542893982,-12.42805573,-0.5834866333
17.9898845,0.15328125,-10.3568129,0.9626481628
17.9999275,-0.8213420105,-8.248596954,3.062780914
18.0099705,-1.094224548,-6.813680878,3.434757385
18.0200145,-1.219064941,-5.873935089,3.026256866
18.0300575,-0.9801617432,-5.534291382,2.474653931
18.0401005,-1.152603149,-6.103557587,1.852098541
18.0501435,-1.000519409,-6.823560333,1.555864563
18.0601865,-0.6450086975,-7.539820862,1.589394836
18.0702295,-0.1423539734,-8.241262207,1.751807098
18.0802725,0.7210505676,-8.789422302,1.747316437
18.0903165,1.198407898,-8.943302307,2.063159637
18.1003595,1.251697083,-8.870104523,1.644330597
18.1104025,1.341210938,-8.541687469,1.307381287
18.1204455,1.568288727,-8.278235321,1.000818787
18.1304885,1.883533173,-8.377928009,0.5075944519
18.1405315,2.077380066,-8.603209534,0.2582130432
18.1505745,2.163750458,-8.81187561,0.1447489929
18.1606185,1.951791229,-8.904832306,0.1145118713
18.1706615,1.57607254,-8.939260712,0.1580712891
18.1807045,1.130598907,-8.990753632,0.3552113342
18.1907475,0.7258406067,-9.10556488,0.9452842712
18.2007905,0.4767585754,-9.365125122,1.633702698
18.2108335,0.2868035889,-9.385033722,2.235900421
18.2208765,0.1110690308,-9.27875473,2.504441986
18.2309205,0.2574645996,-8.97458725,2.497556305
18.2409635,0.3430865479,-8.629105682,2.314487
18.25100738,0.636177063,-8.149053955,2.098336487
18.26105038,1.016236725,-7.661218414,1.687590637
18.27109338,1.128952332,-7.346572723,1.082698517
18.28113638,1.215173035,-7.611671448,0.65758255
18.29117937,1.481169891,-8.975335693,0.8285270691
18.30122238,1.885179749,-10.85213287,1.655557251
18.31126638,2.076781311,-12.15322723,2.784359894
18.32130937,1.981429596,-12.69285507,3.768114166
18.33135238,1.758992157,-12.90436523,3.944597168
18.34139537,1.727407837,-12.24573486,3.214116211
18.35143838,1.301842804,-11.16004257,2.420316925
18.36148138,0.8780740356,-10.39064255,1.321302338
18.37152438,1.26022934,-9.991572418,0.6360273743
18.38156838,1.737736359,-9.745484161,0.4005670166
18.39161138,1.676064606,-9.5432547,0.3384461975
18.40165438,0.7842192078,-9.60522583,0.1196012878
18.41169738,-0.445922699,-10.07839188,-0.2212399292
18.42174038,-1.268462219,-10.77519287,0.1407073975
18.43178338,-2.052681427,-11.51375702,0.7159611511
18.44182637,-2.956202545,-12.29588058,0.6209088135
18.45187038,-4.031117249,-13.04477325,0.3808081055
18.46191338,-4.939578094,-14.30215851,0.06706054688
18.47195637,-4.493655396,-15.37258255,-0.4381388855
18.48199938,-3.021616516,-15.44323563,-0.7563771057
18.49204238,-1.269210663,-15.16212021,-1.103804626
18.50208538,1.08464447,-14.29392563,-2.064656525
18.51212838,3.942651215,-12.58522888,-2.7391539
18.52217138,6.187532959,-10.9446405,-2.20207077
18.53221538,7.493716736,-9.027577057,-2.124232635
18.54225838,8.39065155,-7.520061951,-2.417772217
18.55230138,6.451733551,-7.389982452,0.2817141724
18.56234438,4.038751373,-7.517217865,1.349443817
18.57238737,1.883682861,-7.847580872,0.9886940002
18.58243038,-0.1410067749,-8.104596405,1.266665955
18.59247337,-1.918260956,-8.453520813,2.329156494
18.60251737,-2.374961243,-8.274493103,2.241289215
18.61256038,-2.076481934,-8.067922668,1.73878418
18.62260337,-1.631008301,-8.264164581,1.264420624
18.63264638,-0.5951623535,-8.035739594,0.9126521301
18.64268938,0.3402424622,-7.632927246,0.6735992432
18.65273238,0.6450086975,-7.430248718,0.9033714294
18.66277538,0.9810598755,-7.443421326,0.5258564758
18.67281938,0.8318202209,-7.502248993,0.2203417969
18.68286238,0.1284329224,-7.614365845,0.3354524231
18.69290538,-0.6156697083,-7.735763397,0.5815406799
18.70294837,-0.8849597168,-7.762108612,0.9497749329
18.71299138,-1.018781433,-7.713010712,1.309027863
18.72303437,-0.7297325134,-7.63367569,1.791025543
18.73307738,-0.03143463135,-7.430847473,2.437531128
18.74312138,0.9767189026,-7.159461823,3.10888504
18.75316437,2.274220734,-6.966513062,3.338357849
18.76320738,3.461851044,-6.841073914,3.514541473
18.77325038,4.607418823,-6.489904175,3.6097435
18.78329338,5.581443329,-6.456972656,2.859204254
18.79333638,6.421646118,-6.893165588,2.023791504
18.80337938,6.833439789,-8.021369476,1.330732727
18.81342338,6.510710907,-9.171427917,1.423390045
18.82346638,5.618266754,-10.4921315,2.9077034
18.83350938,5.344336395,-11.85100571,5.283263397
18.84355238,5.618416443,-12.21190521,6.858288116
18.85359537,5.335504761,-11.99785034,6.829248505
18.86363838,4.595443726,-12.18481155,5.405708771
18.87368138,2.772384796,-12.74479706,2.696193237
18.88372537,1.163231049,-13.88168289,-1.040037231
18.89376838,0.2598596191,-16.13928818,-4.173920288
18.90381137,-1.029858398,-18.51170471,-4.565356293
18.91385438,-2.229314117,-19.22616898,-3.205883331
18.92389738,-2.594404907,-17.75068726,-2.217638397
18.93394038,-1.744322662,-13.65984421,-0.3683839417
18.94398338,-0.216000824,-9.957593079,1.751507721
18.95402738,1.184935913,-8.077502747,1.957629089
18.96407038,1.370998993,-7.460336151,0.7997868347
18.97411338,1.150806885,-7.078480225,1.321152649
18.98415637,0.6662644958,-7.309300232,1.242865448
18.99419938,-0.578846283,-8.466094666,1.032852173
19.00424237,-2.250270538,-10.15278717,1.333427124
19.01428538,-4.385580139,-11.55177795,2.183209991
19.02432938,-5.20692215,-12.11206284,3.149151306
19.03437237,-4.299359436,-12.19903198,2.594853973
19.04441538,-2.484683075,-11.70790329,1.704355774
19.05445838,-1.211281128,-10.41593994,0.8000862122
19.06450138,-0.3511697388,-9.283844147,0.5565426636
19.07454438,0.2646496582,-8.611592102,1.096918945
19.08458738,1.075663147,-8.151149597,1.885928192
19.09463138,1.762884064,-7.743846588,2.506088562
19.10467438,1.668879547,-7.288343811,2.35190918
19.11471738,1.278491364,-6.535259857,1.785487061
19.12476038,0.8819659424,-6.116580505,1.015787659
19.13480337,0.5001100159,-6.222410431,0.5411247253
19.14484638,0.4887336731,-6.591542816,0.4082011414
19.15488938,0.6945556641,-6.999145203,0.5165757751
19.16493337,0.8352630615,-7.507637787,0.4822970581
19.17497638,0.9443861389,-8.300988007,0.3854484558
19.18501937,0.9195378113,-9.125772858,0.3393443298
19.19506238,0.9084608459,-9.748627625,0.4034111023
19.20510538,0.9638456726,-10.07914032,0.9192384338
19.21514838,1.067579956,-10.15338593,1.128203888
19.22519138,1.16188385,-10.06791367,1.196611633
19.23523538,1.221909027,-9.772428131,1.216071167
19.24527838,1.265917511,-9.46945816,1.202000427
19.25532054,1.224902802,-9.197473755,1.074914703
19.26536354,0.9909393311,-8.881031799,1.168021088
19.27540654,0.7711962891,-8.817114716,1.376088409
19.28544954,0.5453160095,-8.691974945,1.898502045
19.29549254,0.1585203552,-8.513246613,2.262095947
19.30553654,0.06197113037,-8.53225708,2.33664093
19.31557954,0.3790118408,-8.779393158,2.221530304
19.32562254,0.6732998657,-8.942254486,1.989662476
19.33566554,1.106798401,-9.146429901,1.604962463
19.34570854,1.405577087,-9.084009705,1.316661987
19.35575154,1.493743744,-8.665779419,1.348395996
19.36579454,1.270108795,-8.166268158,1.513652344
19.37583754,0.9208850098,-7.984246674,1.627715149
19.38588154,0.6625222778,-8.3170047,1.778751068
19.39592454,0.3109034729,-9.113498383,2.516417084
19.40596754,-0.1359173584,-9.789043579,3.280727692
19.41601054,-0.2017803955,-10.23840912,4.132606201
19.42605354,0.1911524963,-10.60948746,4.460274811
19.43609654,0.04011657715,-10.8385112,3.805686035
19.44613954,-0.1781295776,-10.54841446,2.63152771
19.45618354,0.2324665833,-10.18018021,1.595532074
19.46622654,0.8271798706,-10.09740234,0.7964936829
19.47626954,1.290915527,-10.32837204,0.008083190918
19.48631254,1.667532349,-11.32170639,-0.7337741089
19.49635554,1.24376358,-12.71306305,-0.6734495544
19.50639854,0.4162843323,-13.63260086,-0.8589138794
19.51644154,-0.3644920349,-14.44151871,-1.484762421
19.52648554,-2.130818939,-15.46239578,-1.440604248
19.53652854,-4.195176086,-16.20051086,-1.149759064
19.54657154,-5.371130676,-16.00696335,-0.6866221619
19.55661454,-4.720882874,-14.93698837,-0.7479945374
19.56665754,-2.565664673,-12.95675629,-0.7144642639
19.57670054,0.4113446045,-11.55043076,-1.296753387
19.58674354,1.682201843,-10.2120639,-2.327060852
19.59678754,3.410058746,-9.361233215,-2.882555695
19.60683054,5.565726013,-8.643026733,-1.904190216
19.61687354,7.663314056,-7.612719269,0.09175918579
19.62691654,7.81494873,-7.578290863,0.7021897888
19.63695954,6.090235291,-7.948770447,-0.01871109009
19.64700254,4.432732086,-8.499624939,0.4242178345
19.65704654,2.412383423,-9.051976318,0.9388476562
19.66708954,0.2944377136,-8.896449738,1.278641052
19.67713254,-1.231938171,-8.746761017,1.881886597
19.68717554,-1.240769806,-8.71367981,2.052681427
19.69721854,-1.151106262,-8.541088715,1.735940094
19.70726154,-1.12910202,-8.262368317,1.521436157
19.71730454,-1.149908752,-8.064330139,1.444496155
19.72734854,-1.037342834,-7.870483246,1.483564911
19.73739154,-0.6231541443,-8.10983551,1.285826111
19.74743454,-0.2151026917,-7.946375427,1.075214081
19.75747754,-0.3658392334,-7.961793365,0.7291337585
19.76752054,-0.7702981567,-7.994724884,0.6336323547
19.77756354,-1.321601715,-7.977510681,0.7683522034
19.78760654,-1.677411804,-7.680977325,0.9265731812
19.79765054,-1.548829193,-7.351063385,1.242416382
19.80769354,-1.234931946,-7.076085205,1.642085266
19.81773654,-0.8767268372,-6.98537384,1.841470642
19.82777954,-0.3131488037,-7.019502869,1.893861694
19.83782254,0.4156855774,-7.036567383,1.839225311
19.84786554,1.365610199,-6.973997498,1.623074799
19.85790854,2.346370697,-6.887028351,1.686991882
19.86795254,3.577410736,-6.875951385,2.213896179
19.87799554,5.02430191,-7.16559906,2.876568146
19.88803854,6.386618958,-7.472011871,3.843557281
19.89808154,7.150779877,-8.568332062,3.447780304
19.90812454,6.781048737,-9.931397552,3.426524506
19.91816754,6.000721436,-10.66322571,4.899611206
19.92821054,5.453609161,-11.37289993,5.450166321
19.93825454,4.381388855,-11.36945709,6.439309387
19.94829754,3.427871704,-10.74211166,7.416776733
19.95834054,2.656525726,-10.12599289,7.284751282
19.96838354,1.916165314,-10.16685791,5.057233429
19.97842654,1.842518463,-10.6102359,1.092278595
19.98846954,1.826801147,-13.10135559,-3.051404572
19.99851254,1.312171326,-16.92695023,-6.917265472
20.00855654,-0.5547463989,-21.28034729,-10.82488953
20.01859954,-2.48647934,-23.66324203,-9.798923035
20.02864254,-2.529889069,-20.13433044,-2.789898376
20.03868554,-3.133134613,-11.33413055,3.549119568
20.04872854,-0.8961863708,-7.045698395,3.8366716
20.05877154,0.1134640503,-6.43317215,2.979853363
20.06881454,-0.7580236816,-5.992338867,3.195105743
20.07885854,-1.754651184,-5.795797577,2.942281494
20.08890154,-2.414928131,-7.21245163,3.520079956
20.09894454,-3.957919464,-9.538165283,3.775448914
20.10898754,-6.530320129,-12.20486984,2.80232254
20.11903054,-6.914571075,-14.06654846,2.49576004
20.12907354,-4.327650604,-15.14595383,1.449585571
20.13911654,-1.276246033,-15.32034119,-0.8584648132
20.14916054,0.2417472839,-14.38598419,-2.011217651
20.15920354,0.9937834167,-12.71291336,-0.9642947388
20.16924654,0.7312294006,-10.48494644,1.234931946
20.17928954,0.2716850281,-8.922944641,2.609523468
20.18933254,-0.43409729,-7.72962616,2.699486389
20.19937554,-0.8171507263,-6.699468384,2.242337036
20.20941854,-0.7204518127,-6.031856689,1.483115845
20.21946254,-0.7047344971,-6.053262177,0.9211843872
20.22950554,-0.6156697083,-6.576723633,1.186133423
20.23954854,-0.4270619202,-7.014114075,1.513203278
20.24959154,-0.2297721863,-7.448660431,2.07812851
20.25963475,0.1422042847,-7.722141724,2.409539337
20.26967775,0.5361849976,-7.980205078,2.069596252
20.27972075,0.523611145,-8.2280896,1.90493866
20.28976475,0.5745053101,-8.388406219,1.677411804
20.29980775,0.8857081604,-8.437653809,1.224154358
20.30985075,1.196911011,-8.491841125,0.7315287781
20.31989375,1.382974091,-8.551417236,0.3926335144
20.32993675,1.639989624,-8.788075104,0.3106040955
20.33997975,1.800455933,-9.045390015,0.3341052246
20.35002375,1.762285309,-9.271419983,0.4403842163
20.36006675,1.560055847,-9.302854614,0.7902067566
20.37010975,1.28238327,-9.37126236,1.322050781
20.38015275,1.05545517,-9.409133606,1.87215683
20.39019575,0.869841156,-9.4543396,2.328557739
20.40023875,0.6810836792,-9.381141815,2.494562531
20.41028175,0.7912545776,-9.222471771,2.41852066
20.42032575,1.120869141,-9.195527802,2.188898163
20.43036875,1.35962265,-9.166637878,1.973346405
20.44041175,1.60062149,-8.847501526,1.896855469
20.45045475,1.703757019,-8.273295593,1.835632782
20.46049775,1.591640167,-7.53188736,1.637145538
20.47054075,1.037492523,-7.053182831,1.505718842
20.48058375,0.4258644104,-7.183561707,1.68369873
20.49062775,-0.04460723877,-8.023764496,2.322420502
20.50067075,-0.2606080627,-9.055419159,3.206332397
20.51071375,-0.4210743713,-9.877958679,4.159550171
20.52075675,-0.8503816223,-10.18182678,5.106031952
20.53079975,-1.090332642,-9.940528564,4.849016418
20.54084275,-0.2462379456,-9.279353485,4.13859375
20.55088575,0.7773335266,-8.359965363,3.285218353
20.56092975,1.192420349,-7.698341217,1.865420837
20.57097275,1.010698242,-7.566166077,0.3644920349
20.58101575,0.7506889343,-7.773634644,-0.8677455139
20.59105875,0.6126759338,-8.295150146,-1.490749969
20.60110175,0.9810598755,-9.250613251,-1.084345093
20.61114475,1.406175842,-11.54399414,-0.1739382935
20.62118775,1.160087585,-14.53013443,0.4713697815
20.63123175,0.2257305908,-17.8403508,0.7087760925
20.64127475,-1.416055298,-22.39522888,0.7906558228
20.65131775,-1.892215118,-25.05684402,-0.9071136475
20.66136075,-1.172362061,-24.12428329,-4.297114105
20.67140375,-0.7801776123,-21.08485382,-5.434299316
20.68144675,-0.04685256958,-16.67771851,-5.558990021
20.69149075,1.614392853,-12.46098724,-5.609884186
20.70153375,4.169579315,-9.293124847,-4.486021271
20.71157675,5.832171936,-7.442523193,-2.086810455
20.72161975,5.17533783,-6.406826935,-0.8159532166
20.73166275,4.887037354,-5.591023407,1.051114197
20.74170575,4.147425385,-5.040318604,2.807411957
20.75174875,2.436782684,-5.777984619,2.169588318
20.76179275,0.710123291,-7.219786377,1.707349548
20.77183575,-1.237626343,-8.199798431,2.135159912
20.78187875,-1.812281342,-7.896828461,2.66894989
20.79192175,-1.613045654,-7.554789734,2.662962341
20.80196475,-1.251846771,-7.232659607,2.318827972
20.81200775,-0.03143463135,-6.903344421,1.84760788
20.82205175,0.9045689392,-7.649393005,1.211281128
20.83209475,1.555265808,-7.883206787,0.7794291687
20.84213775,1.347797241,-8.197104034,0.6845265198
20.85218075,0.8758287048,-8.896300049,0.5313949585
20.86222375,0.5764512634,-9.043743439,-0.02918930054
20.87226675,-0.0505947876,-8.829538879,-0.1341210938
20.88230975,-0.4812492371,-8.484805756,0.135617981
20.89235375,-0.6569837952,-8.177195435,0.4146377563
20.90239675,-0.627046051,-7.890541534,1.009351044
20.91243975,-0.3823049927,-7.54476059,1.732497253
20.92248275,0.1550775146,-7.312144318,2.186503143
20.93252575,0.9035211182,-7.195237427,2.556084595
20.94256875,1.67202301,-7.116052094,2.792143707
20.95261275,2.316582642,-6.951544189,2.950214996
20.96265575,2.763253784,-6.866221619,3.121608582
20.97269875,3.184777222,-6.80050827,3.32189209
20.98274175,3.7875737,-6.626869354,3.644171906
20.99278475,4.504133606,-6.675667877,3.980971527
21.00282775,4.561913452,-7.734565887,3.43655365
21.01287075,4.917124786,-9.161548462,2.781665497
21.02291475,5.459297333,-10.14275803,2.455793152
21.03295775,5.244194641,-10.58119629,3.787124634
21.04300075,4.931494904,-11.4145134,5.552703094
21.05304375,5.114115143,-11.99785034,6.016139374
21.06308675,6.212231598,-11.31212631,7.235354004
21.07312975,6.162385254,-10.17823425,7.832312622
21.08317375,5.78142746,-9.739346924,5.630990295
21.09321675,4.41117691,-10.38405624,1.632804565
21.10325975,2.333347778,-12.43389359,-2.184407501
21.11330275,1.308429108,-15.17529282,-4.707111511
21.12334575,0.5475613403,-19.21464294,-7.291636963
21.13338875,-1.493594055,-23.53136627,-8.108638
21.14343175,-4.401147766,-23.96456543,-5.879323883
21.15347575,-6.86607193,-16.12880997,-2.404749298
21.16351875,-3.935615845,-8.514294434,2.002535706
21.17356175,-2.435136108,-4.984933777,2.554737396
21.18360475,-1.219064941,-3.661984863,2.990930328
21.19364775,0.609382782,-3.746109924,4.053271179
21.20369075,1.360520782,-5.249733124,4.153263245
21.21373475,0.21061203,-6.936725006,3.121608582
21.22377775,-1.813029785,-9.17352356,1.460961914
21.23382075,-3.97483429,-11.78888489,-0.2239343262
21.24386375,-3.590583344,-14.15800827,-0.2818638611
21.25390688,-1.924398193,-15.4555101,-0.3992198181
21.26394988,-0.6673123169,-15.56942322,-0.4055067444
21.27399288,-0.1811233521,-13.9665564,0.3019221497
21.28403688,0.06092330933,-11.04448288,1.031055908
21.29407988,-0.3818559265,-8.496331787,1.876048737
21.30412288,-0.8840615845,-6.709647217,2.751877441
21.31416587,-0.6486012268,-5.572312317,2.815794525
21.32420888,-0.6506968689,-5.071753235,2.574645996
21.33425187,-0.4593946838,-5.510341187,2.079176331
21.34429587,-0.563278656,-6.437213745,1.771715698
21.35433888,-0.736917572,-7.51781662,1.500180359
21.36438187,-0.5294490051,-8.549471283,1.553619232
21.37442488,-0.02260299683,-9.361981659,1.660646667
21.38446788,0.6486012268,-9.908195801,1.649719391
21.39451088,1.161135406,-10.02285736,1.849404144
21.40455388,1.642234955,-9.758656769,2.129172363
21.41459788,1.827848969,-9.298363953,1.502725067
21.42464088,1.933529205,-8.830736389,0.9882449341
21.43468388,2.206860809,-8.661588135,0.818946991
21.44472688,2.435136108,-8.620573425,0.7999365234
21.45476988,2.726430359,-8.660839691,0.7613168335
21.46481287,2.852767639,-8.885223083,0.7720944214
21.47485588,2.86324585,-9.016200714,0.7991880798
21.48489988,2.575993195,-9.057215424,0.7764353943
21.49494287,2.121238861,-8.951834564,0.8873547363
21.50498588,1.602567444,-8.788374481,1.185235291
21.51502888,1.174457703,-8.790021057,1.358874207
21.52507188,1.115180969,-8.88911499,1.587897949
21.53511488,1.120120697,-9.047934723,1.658401337
21.54515888,0.9674382019,-9.260792084,1.627864838
21.55520188,0.8116122437,-9.254056091,1.744921417
21.56524488,0.5872288513,-9.015452271,1.869312744
21.57528788,0.3598516846,-8.706494751,1.810185699
21.58533088,0.310304718,-8.209228821,1.514849854
21.59537387,0.47271698,-7.863447876,0.9458830261
21.60541688,0.9894424438,-7.974067841,0.5026547241
21.61546088,1.722767487,-8.784632263,0.5977070618
21.62550387,2.696193237,-9.93753479,1.441652069
21.63554688,3.409310303,-10.86949677,2.478396149
21.64558987,3.38266571,-11.45058838,3.157234497
21.65563288,2.980302429,-11.39385635,3.784879303
21.66567588,1.988315277,-11.08819199,3.085084534
21.67571888,0.9047186279,-10.94958023,1.949695587
21.68576288,0.4659809875,-10.93565918,1.541195068
21.69580588,0.1297801208,-11.10540619,1.56903717
21.70584888,-0.4195774841,-11.34565659,1.558109894
21.71589188,-1.628912659,-11.44954056,1.55736145
21.72593487,-2.709365845,-11.527229,1.302890625
21.73597788,-2.635718994,-11.73335037,1.259181519
21.74602087,-2.024090881,-11.92031158,0.7307803345
21.75606488,-1.924547882,-12.30995132,-0.2198927307
21.76610788,-2.510130157,-12.62504608,-0.7075785828
21.77615087,-2.447560272,-12.32447113,-0.8816665649
21.78619388,-1.791175232,-12.05248672,-0.9412426758
21.79623688,-0.966839447,-12.0912561,-1.154698792
21.80627988,0.5294490051,-12.19454132,-1.905387726
21.81632388,2.257904663,-12.65154099,-3.64477066
21.82636688,3.982618103,-12.5584346,-4.422104187
21.83640988,5.591771851,-10.86141357,-3.018173676
21.84645288,7.961793365,-8.952882385,0.6152206421
21.85649588,7.9905336,-7.651937714,1.311422882
21.86653888,5.603148193,-7.908055115,0.2215393066
21.87658187,2.879262543,-7.778873749,1.32459549
21.88662588,2.027683411,-7.562573547,2.974763947
21.89666888,0.343535614,-8.372239838,2.714455261
21.90671187,-0.9879455566,-9.15825531,2.361638947
21.91675488,-1.540895691,-9.435778198,2.299518127
21.92679787,-1.728755035,-9.275461578,2.019899597
21.93684088,-1.570683746,-9.877509613,1.461560669
21.94688388,-0.7518864441,-9.884694672,0.9452842712
21.95692787,0.477507019,-9.523196411,0.5331912231
21.96697088,0.943787384,-8.960217133,0.1920506287
21.97701388,0.5872288513,-8.480913849,0.1360670471
21.98705688,-0.2137554932,-8.372838593,0.6185137939
21.99709988,-1.254241791,-8.369994507,1.222956848
22.00714287,-1.95523407,-8.380323029,1.749861145
22.01718688,-2.299817505,-8.303682404,2.024539948
22.02722988,-2.576741638,-8.117619324,2.186802521
22.03727288,-2.410138092,-7.979606323,2.170785828
22.04731588,-1.783092041,-7.948171692,2.0570224
22.05735887,-0.9948312378,-7.866142273,2.271077271
22.06740188,0.06915618896,-7.657326508,2.40564743
22.07744488,1.29645401,-7.386838989,2.442770233
22.08748887,2.398162994,-7.238946533,2.258204041
22.09753188,3.203338623,-7.195536804,1.783990173
22.10757488,3.894900513,-7.414232025,1.300196228
22.11761788,4.429888,-7.604037323,1.374292145
22.12766088,4.1339534,-7.559280396,2.370769958
22.13770388,3.811823273,-7.763156433,3.934118958
22.14774688,3.911665649,-8.854686584,5.263953552
22.15779088,3.883973236,-9.771979065,6.983727264
22.16783388,4.074377289,-10.29544052,7.983947296
22.17787688,4.07886795,-10.56009018,7.956853638
22.18791987,3.654051361,-10.89434509,6.82625473
22.19796288,2.846331024,-11.12097382,4.509073334
22.20800587,2.294877777,-11.1384874,1.314865723
22.21804987,2.946472778,-11.55581955,-1.533860321
22.22809288,3.245999908,-13.24146423,-3.974235535
22.23813587,2.097288666,-16.31143021,-6.257437592
22.24817888,0.8887019348,-19.34831497,-6.093678131
22.2582225,-1.338067474,-19.20820633,-3.43775116
22.2682655,-2.98718811,-14.991026,-0.1065783691
22.2783085,-2.613415375,-10.2903511,3.820505219
22.2883525,-1.663490753,-8.441695404,3.433559875
22.2983955,-1.14317276,-8.535400543,3.642974396
22.3084385,-1.887425079,-8.027656403,4.28019928
22.3184815,-2.786305847,-8.597970428,3.674259338
22.3285245,-3.774251404,-9.941726074,2.87492157
22.3385675,-4.993316345,-11.25329865,2.979553986
22.3486105,-5.748346252,-12.10757217,3.316952362
22.3586545,-6.152655487,-12.61920822,3.573967896
22.3686975,-4.739743652,-12.58463013,2.34831665
22.3787405,-1.093775482,-12.58178604,-0.0260458374
22.3887835,1.585951996,-11.9665654,-0.6337820435
22.3988265,2.556383972,-10.86006638,0.336051178
22.4088695,3.184028778,-9.918524323,0.8167016602
22.4189135,3.458258514,-9.103768616,0.6071374512
22.4289565,2.642305298,-8.389454041,0.2104623413
22.4389995,1.581461334,-7.522756348,0.01496887207
22.4490425,0.800684967,-6.852150879,-0.163460083
22.4590855,0.3367996216,-6.493197327,-0.1269360352
22.4691285,0.320483551,-6.582561493,0.2459385681
22.4791715,0.536484375,-6.85080368,1.145717468
22.4892155,0.9101074219,-7.401358795,1.392254791
22.4992585,1.142574005,-8.024363251,1.57966507
22.5093015,1.178948364,-8.453371124,1.547631683
22.5193445,0.8894503784,-8.686286774,1.195563812
22.5293875,0.5026547241,-9.01320694,0.8834628296
22.5394305,0.08068222046,-9.31737442,0.7536827087
22.5494735,-0.06466552734,-9.407636719,0.7876620483
22.5595175,-0.04640350342,-9.30450119,0.9150471497
22.5695605,0.05328918457,-9.41332489,0.9060658264
22.5796035,-0.2097138977,-9.911339264,0.830173645
22.5896465,-0.3992198181,-9.794582062,1.364712067
22.5996895,-0.6110293579,-9.570647736,2.006277924
22.6097325,-0.6030958557,-9.278904419,2.412832489
22.6197755,-0.4593946838,-9.024433594,2.71460495
22.6298195,-0.09849517822,-8.919801178,2.953957214
22.6398625,0.1845661926,-8.899892578,2.93344986
22.6499055,0.5625302124,-9.03775589,2.830014954
22.6599485,0.9355545044,-9.079668732,2.607128448
22.6699915,1.156644745,-8.818761292,2.485730896
22.6800345,1.172212372,-8.437803497,2.29098587
22.6900775,0.8713380432,-7.97766037,1.950294342
22.7001215,0.6914122009,-7.624993744,1.63924118
22.7101645,0.6957531738,-7.670050049,1.547931061
22.7202075,0.7102729797,-7.989934845,2.145638123
22.7302505,0.7547305298,-8.471932526,3.02116745
22.7402935,0.7161108398,-8.799301758,3.57696167
22.7503365,0.8794212341,-9.098080444,4.20760025
22.7603805,1.173858948,-9.276060333,4.42405014
22.7704235,0.966839447,-9.237590332,3.660338287
22.7804665,0.5075944519,-9.172924805,2.544408875
22.7905095,0.009280700684,-9.337432709,1.410067749
22.8005525,-0.7571255493,-10.04216721,0.4426295471
22.8105955,-1.168470154,-10.89674011,0.07933502197
22.8206385,-1.31052475,-12.0143161,0.2799179077
22.8306825,-1.219514008,-13.41255844,0.4909790039
22.8407255,-1.619332581,-14.99776199,0.07214996338
22.8507685,-2.409988403,-16.46381332,-0.3457809448
22.8608115,-3.220702515,-17.18291794,-0.8464897156
22.8708545,-3.405568085,-16.68205948,-1.471290436
22.8808975,-2.877316589,-15.34384232,-1.614093475
22.8909405,-1.681603088,-13.93826523,-2.073787537
22.9009845,0.3019221497,-12.64121246,-2.589165802
22.9110275,1.592837677,-11.72317154,-3.027454376
22.9210705,1.607956238,-10.676548,-2.711461487
22.9311135,3.319197693,-9.175020447,-0.5685177612
22.9411565,5.048701172,-8.286019135,1.314266968
22.9511995,5.770949249,-7.528145142,2.823877716
22.9612435,5.48654068,-7.077432404,3.432212677
22.9712865,2.841840363,-7.777975616,2.625839539
22.9813295,0.8562194824,-8.289162598,2.272873535
22.9913725,-0.02275268555,-8.578061829,2.163900146
23.0014155,-0.01901046753,-8.761280823,1.892364807
23.0114585,-0.8062234497,-8.825796661,1.491947479
23.0215015,-1.032253418,-9.116492157,1.703008575
23.0315455,-0.4641847229,-9.215137024,1.749711456
23.0415885,-0.1649569702,-9.228159943,1.246607666
23.0516315,0.333356781,-9.368717651,1.135688324
23.0616745,0.996328125,-9.258097687,1.228195953
23.0717175,0.5766009521,-9.621392212,1.226998444
23.0817605,-0.2375559998,-9.759105835,1.190175018
23.0918035,-0.7973918152,-9.53741684,1.231489105
23.1018475,-1.152303772,-9.354646912,1.544338531
23.1118905,-1.510359192,-9.079668732,2.39052887
23.1219335,-1.572929077,-8.769513702,2.84333725
23.1319765,-1.452279968,-8.44214447,2.886447601
23.1420195,-0.9867480469,-8.163124695,2.400108948
23.1520625,-0.2055226135,-8.119116211,1.720522156
23.1621065,0.2885998535,-8.162076874,1.245709534
23.1721495,0.7770341492,-8.077652435,1.109642487
23.1821925,1.184786224,-7.956853638,1.221160583
23.1922355,1.410965881,-7.878416748,1.391805725
23.2022785,1.607956238,-7.79623764,1.850152588
23.2123215,1.894011383,-7.712861023,2.59530304
23.2223645,1.756896515,-7.761809235,3.356170807
23.2324085,1.788181458,-7.980654144,3.888912964
23.2424515,2.055675201,-8.351882172,4.088897095
23.2524945,2.213896179,-8.956474915,4.276756439
23.26253725,2.54845047,-9.429042206,4.698130188
23.27258025,2.780917053,-9.64504303,4.795876923
23.28262325,2.764451294,-9.718839569,4.610412598
23.29266725,2.588567047,-9.754764862,4.171076202
23.30271025,2.634521484,-9.634564819,4.309238892
23.31275325,3.074456635,-9.361981659,5.216352539
23.32279625,3.082988892,-8.905431061,5.885760498
23.33283925,2.609523468,-8.602610779,4.749623108
23.34288225,1.852996674,-8.774603119,2.60578125
23.35292525,1.427731018,-9.838590546,1.340612183
23.36296925,0.7220983887,-11.76403656,0.3571572876
23.37301225,0.4011657715,-13.38621323,-0.2305206299
23.38305525,0.4147874451,-14.83939133,-0.3576063538
23.39309825,0.5984555054,-16.79791855,-1.604812775
23.40314125,0.7523355103,-18.04392746,-1.994153137
23.41318425,-0.6556365967,-16.78384781,-2.228266296
23.42322825,-1.900298309,-13.53590195,-3.581152954
23.43327125,-0.4031117249,-10.32612671,-2.300565948
23.44331425,0.899329834,-8.804241486,0.1437011719
23.45335725,0.5412744141,-8.171806641,1.418300629
23.46340025,-0.6201603699,-8.387508087,1.221310272
23.47344325,-1.531914368,-9.438322906,1.090182953
23.48348625,-3.212619324,-10.48704208,2.183958435
23.49353025,-4.68271225,-11.56989029,4.411027222
23.50357325,-5.049599304,-12.39272919,5.622158661
23.51361625,-4.5095224,-12.31923203,4.11164978
23.52365925,-2.828368378,-11.21482864,2.885250092
23.53370225,-0.3336561584,-10.0541423,1.434616699
23.54374525,0.582588501,-9.084159393,0.8449928284
23.55378825,0.8979826355,-8.464148712,0.7888595581
23.56383225,1.635199585,-7.978109436,0.951870575
23.57387525,2.148631897,-7.677833862,1.072369995
23.58391825,2.028731232,-7.259902954,0.9148974609
23.59396125,1.417851562,-7.025939484,0.4688250732
23.60400425,0.6759942627,-7.301217041,0.2381547546
23.61404725,0.3758683777,-7.626939697,0.02499801636
23.62409125,0.5897735596,-7.782166901,0.1178050232
23.63413425,1.087638245,-8.082143097,0.4825964355
23.64417725,1.540446625,-8.482859802,0.7405101013
23.65422025,1.942061462,-8.714727631,0.8949888611
23.66426325,2.189496918,-8.865164795,1.122216339
23.67430625,2.288890228,-8.882528687,1.264570312
23.68434925,2.286794586,-8.890911255,1.094374237
23.69439325,2.034269714,-8.980874176,1.363664246
23.70443625,1.591939545,-9.070837097,1.420995026
23.71447925,1.055904236,-9.1278685,1.505120087
23.72452225,0.6177653503,-9.097631378,1.650767212
23.73456525,0.1541793823,-9.101074219,1.89086792
23.74460825,-0.1986369324,-9.118138733,2.124681702
23.75465225,-0.4555027771,-9.135203247,2.406994629
23.76469525,-0.5414241028,-9.295669556,2.658621368
23.77473825,-0.6189628601,-9.293424225,2.91937912
23.78478125,-0.5194198608,-9.026229858,2.899769897
23.79482425,-0.476459198,-8.975335693,2.464774475
23.80486725,-0.2501298523,-8.997339935,1.885329437
23.81491025,-0.1095721436,-9.105115814,1.575773163
23.82495425,-0.005089416504,-9.159153442,1.467398529
23.83499725,-0.1002914429,-9.185049591,1.306183777
23.84504025,-0.2213896179,-9.163494415,1.318009186
23.85508325,-0.2628533936,-9.274563446,1.438807983
23.86512625,-0.1369651794,-9.565708008,1.885628815
23.87516925,0.1284329224,-9.856253815,2.432741089
23.88521225,0.6165678406,-10.01746857,2.630928955
23.89525625,0.9659413147,-10.16536102,2.82223114
23.90529925,1.216969299,-10.41668839,3.090473328
23.91534225,1.203347626,-10.58314224,3.659589844
23.92538525,1.21098175,-10.23586441,4.267775116
23.93542825,1.322948914,-9.927505646,4.402794342
23.94547125,1.533560944,-9.777517548,4.465663605
23.95551525,1.773062897,-9.703271942,4.155358887
23.96555825,1.701811066,-9.579030304,3.362757111
23.97560125,1.510059814,-9.526339874,2.558030548
23.98564425,1.304387512,-9.800719299,1.465302887
23.99568725,0.7896080017,-10.38405624,0.4438270569
24.00573025,-0.06960525513,-10.9831105,0.0477507019
24.01577325,-0.9698332214,-11.88723038,0.1841171265
24.02581725,-1.418001251,-12.72503815,0.4146377563
24.03586025,-1.930834808,-13.56524094,-0.2893482971
24.04590325,-2.662962341,-14.36158493,0.05014572144
24.05594625,-3.576811981,-14.88938736,0.4252656555
24.06598925,-3.957620087,-14.56576035,-0.5590873718
24.07603225,-3.527564392,-13.60416,-1.241967316
24.08607525,-2.421065369,-12.64585281,-1.298250275
24.09611925,-0.6140231323,-11.74831924,-1.912722473
24.10616225,2.216440887,-10.79255676,-1.627715149
24.11620525,3.964954834,-9.505233765,-0.9421408081
24.12624825,4.134851532,-8.319998474,-1.760638733
24.13629125,5.537135468,-7.818092194,-0.8482859802
24.14633425,4.968468018,-7.307803345,1.055604858
24.15637825,3.851640472,-7.217690735,1.626817017
24.16642125,3.291654968,-7.580835571,2.572700043
24.17646425,1.912572784,-8.628806305,2.491568756
24.18650725,0.3546125793,-9.566306763,2.161954193
24.19655025,-0.3234773254,-9.718091125,1.780247955
24.20659325,-0.7288343811,-9.69653595,1.896556091
24.21663625,-1.004411316,-9.646689606,3.241060181
24.22668025,-0.8518785095,-9.552385712,3.398682404
24.23672325,-0.3585044861,-9.309889984,2.690954132
24.24676625,-0.1797761536,-9.830507355,2.463726654
24.25680888,0.03008743286,-9.888137512,2.567610626
24.26685187,-0.04475692749,-9.512418823,2.211800537
24.27689488,-0.3463796997,-9.408235474,1.705253906
24.28693888,-0.8539741516,-9.343719635,1.371897125
24.29698187,-1.286574554,-9.291029205,1.175804901
24.30702488,-1.496138763,-9.142088928,1.112636261
24.31706788,-1.49539032,-8.826694794,1.147962799
24.32711088,-1.298549652,-8.427175598,1.188079376
24.33715388,-1.129251709,-8.090375977,1.5129039
24.34719687,-0.5589376831,-7.841443634,1.655108185
24.35724088,-0.06900650024,-7.759114838,1.802850952
24.36728388,0.5390290833,-7.747439117,1.891915741
24.37732687,1.179846497,-7.718698883,2.079475708
24.38736988,1.849254456,-7.691754913,2.321821747
24.39741287,2.398911438,-7.580087128,2.469863892
24.40745588,2.850821686,-7.42770401,2.618355103
24.41749988,3.334915009,-7.418423309,2.842888184
24.42754287,3.582649841,-7.83141449,2.789898376
24.43758588,3.60734848,-8.263266449,2.895578613
24.44762888,3.485352173,-8.612340546,3.507506104
24.45767188,3.363355865,-8.977281647,4.222269745
24.46771488,3.497926025,-9.441166992,4.903353424
24.47775788,3.478466492,-9.856553192,5.365891571
24.48780188,3.483406219,-9.997110901,5.568270721
24.49784488,3.592828674,-10.06132736,5.433999939
24.50788788,3.562292175,-10.00579285,4.861889648
24.51793088,3.206931152,-9.876162415,3.315156097
24.52797387,2.295626221,-10.2134111,1.747915192
24.53801688,1.392254791,-11.46810196,0.612077179
24.54806088,0.4418811035,-13.31870361,-0.2315684509
24.55810387,-0.5715115356,-14.94282623,-0.1496887207
24.56814688,-1.013692017,-15.79709976,0.4457730103
24.57818987,-0.3715274048,-16.56949356,0.5095404053
24.58823288,0.7185058594,-16.88892929,0.4682263184
24.59827588,1.190324707,-15.46030014,0.2305206299
24.60831987,0.440533905,-12.37177277,-0.9074130249
24.61836288,0.06256988525,-9.259444885,-1.068029022
24.62840588,0.5197192383,-7.259004822,-0.1802252197
24.63844888,1.160087585,-5.963748322,0.1469943237
24.64849188,0.9873468018,-5.400020599,0.7092251587
24.65853487,-0.1234931946,-6.27869339,0.780327301
24.66857788,-0.8348139954,-8.034392395,0.445922699
24.67862188,-1.107097778,-10.28825546,0.8982820129
24.68866488,-1.648970947,-12.19528976,1.608255615
24.69870788,-1.912423096,-13.60520782,2.367177429
24.70875087,-2.376009064,-14.26219162,2.761008453
24.71879388,-1.913919983,-13.37229218,2.213896179
24.72883688,-1.053658905,-11.15121094,1.038839722
24.73888087,-0.3905378723,-8.997040558,1.027463379
24.74892388,0.060025177,-7.90865387,1.308878174
24.75896688,0.5403762817,-7.604636078,1.847158813
24.76900988,1.108894043,-7.489525452,2.413730621
24.77905288,1.281335449,-7.225175171,2.513273621
24.78909588,0.9114546204,-6.929989014,2.01840271
24.79913888,0.2920426941,-7.109316101,1.106499023
24.80918288,-0.2510279846,-7.501949615,0.4528083801
24.81922588,-0.3984713745,-7.715405731,0.2703378296
24.82926888,-0.05673202515,-7.915240173,0.4692741394
24.83931187,0.4799020386,-8.23976532,0.8330177307
24.84935488,0.963097229,-8.703650665,0.9852511597
24.85939787,1.321452026,-9.233399048,0.8689430237
24.86944088,1.692829742,-9.582922211,0.6155200195
24.87948488,1.746867371,-9.641749878,0.7041357422
24.88952787,1.774410095,-9.472751312,0.6827302551
24.89957088,1.720522156,-9.211394806,0.5129832458
24.90961388,1.632654877,-8.918304291,0.6345304871
24.91965688,1.463656311,-8.701555023,0.7041357422
24.92969988,1.134790192,-8.659043427,0.8963360596
24.93974388,0.7346722412,-8.775501251,1.133592682
24.94978688,0.2902464294,-8.931027832,1.398990784
24.95982988,-0.170944519,-9.016350403,1.806742859
24.96987288,-0.5786965942,-9.062903595,2.063608704
24.97991588,-0.739611969,-9.40868454,2.265089722
24.98995887,-0.9997709656,-9.535171509,2.322869568
25.00000288,-1.185085602,-9.581275635,2.273172913
25.01004588,-1.226699066,-9.610914001,2.440973969
25.02008887,-0.8951385498,-9.504185944,2.629581757
25.03013188,-0.2966830444,-9.69533844,2.598147125
25.04017488,0.4123924255,-10.11117371,2.540367279
25.05021788,1.0285112,-10.37821838,2.352957001
25.06026088,1.563798065,-10.09231293,2.115101624
25.07030488,1.986369324,-9.524244232,1.702559509
25.08034788,2.279010773,-9.159602509,1.368304596
25.09039088,2.257904663,-9.061706085,1.395248566
25.10043388,1.836381226,-9.248218231,1.900747375
25.11047688,1.217418365,-9.412875824,2.564018097
25.12051987,0.6930587769,-9.644144897,3.130440216
25.13056288,0.4602928162,-9.679321747,3.543431396
25.14060688,0.1414558411,-9.680818634,3.386108551
25.15064987,-0.113613739,-9.828561401,3.107837219
25.16069288,0.2245330811,-10.03887405,2.969973907
