"Time (s)","Acceleration x (m/s^2)","Acceleration y (m/s^2)","Acceleration z (m/s^2)","Absolute acceleration (m/s^2)"
2.644041670E-3,-3.266956329E0,5.984704742E0,6.492299194E0,9.414862895E0
1.268704169E-2,-3.530258789E0,5.883814545E0,6.156098328E0,9.218435189E0
2.273004167E-2,-3.413351898E0,5.659580841E0,5.981860657E0,8.914285355E0
3.277304166E-2,-3.167712708E0,5.594615936E0,5.874982910E0,8.709165027E0
4.281604168E-2,-2.864742737E0,5.760021973E0,5.649551697E0,8.561660963E0
5.286004167E-2,-2.313139801E0,5.498066711E0,5.135520630E0,7.871018069E0
6.290304169E-2,-3.601959686E0,4.903652802E0,5.268593903E0,8.048478495E0
7.294604168E-2,-3.860921173E0,4.752317505E0,5.751340027E0,8.400544392E0
8.298904166E-2,-3.535048828E0,5.467530212E0,7.946076050E0,1.027280786E1
9.303204168E-2,-2.558479614E0,5.740861816E0,8.888067169E0,1.088581877E1
1.030750417E-1,-1.823058929E0,5.317242737E0,8.804690552E0,1.044601311E1
1.131180417E-1,-1.622775421E0,5.063370667E0,8.657247162E0,1.015967770E1
1.231620417E-1,-1.419348450E0,4.578229523E0,8.480614471E0,9.741435079E0
1.332050417E-1,-9.759704590E-1,3.566483459E0,8.755293274E0,9.504077173E0
1.432480417E-1,-1.161584473E-1,2.800226898E0,9.158854065E0,9.578067198E0
1.532910417E-1,7.964936829E-1,2.836601257E0,9.724827118E0,1.016134693E1
1.633340417E-1,1.159189453E0,3.404220886E0,9.893226929E0,1.052655590E1
1.733770417E-1,1.457369385E0,4.175866241E0,9.136999512E0,1.015118439E1
1.834200417E-1,1.897454224E0,4.948409729E0,7.973469086E0,9.574095291E0
1.934630417E-1,1.985321503E0,5.590424652E0,6.897955627E0,9.098139431E0
2.035070417E-1,1.456920319E0,5.535039825E0,6.869065704E0,8.941104313E0
2.135500417E-1,4.390370178E-1,4.829107819E0,7.949219513E0,9.311451374E0
2.235930417E-1,-9.520202637E-2,3.748205566E0,7.385940857E0,8.283129284E0
2.336363750E-1,-1.048120422E0,8.054750061E-1,8.683891754E0,8.783924089E0
2.436793750E-1,-8.375083923E-1,-1.823657684E0,8.288563843E0,8.528038358E0
2.537223750E-1,-1.308728485E0,-2.187700653E0,7.282356262E0,7.715666992E0
2.637653750E-1,-2.015109558E0,-5.848338318E-1,8.478369141E0,8.734153675E0
2.738093750E-1,-2.949915619E0,-9.385482788E-2,9.952503662E0,1.038090266E1
2.838523750E-1,-6.876699829E-1,-6.810836792E-1,9.673483887E0,9.721782526E0
2.938953750E-1,2.153122559E0,-9.301657104E-1,7.859555969E0,8.202058585E0
3.039383750E-1,3.600313110E0,2.609074402E-1,6.047723694E0,7.043102233E0
3.139813750E-1,3.767066345E0,2.440524902E0,3.954027557E0,5.981745947E0
3.240243750E-1,3.963607635E0,3.867657166E0,9.771679688E-1,5.623505551E0
3.340673750E-1,4.342619476E0,4.137396240E0,-1.496138763E0,6.181813873E0
3.441103750E-1,4.105512543E0,2.764600983E0,-1.048719177E0,5.059452910E0
3.541543750E-1,4.125570831E0,5.149291992E-1,-4.903802490E-1,4.186401743E0
3.641973750E-1,3.661086731E0,-1.204096069E0,-2.014361115E0,4.348684180E0
3.742403750E-1,2.498604126E0,-2.007774811E0,-2.518662415E0,4.076498820E0
3.842833750E-1,1.663341064E0,-1.561103668E0,-3.363056488E0,4.063729457E0
3.943263750E-1,-1.227447510E-2,-1.707948303E0,-5.615272980E0,5.869286899E0
4.043693750E-1,-6.264472961E-1,-4.119283905E0,-7.480244751E0,8.562417745E0
4.144123750E-1,-6.394702148E-1,-5.073998566E0,-8.125103760E0,9.600609080E0
4.244553750E-1,-4.909790039E-1,-5.601351929E0,-7.103029175E0,9.059206768E0
4.344993750E-1,4.314028931E-1,-7.432494049E0,-4.458628235E0,8.677986056E0
4.445423750E-1,5.995033264E-1,-9.600286102E0,-1.877695312E0,9.800542698E0
4.545853750E-1,3.516188049E-1,-1.156510025E1,-1.035845947E-1,1.157090789E1
4.646283750E-1,1.678010559E-1,-1.351494553E1,1.297501831E0,1.357812287E1
4.746713750E-1,3.162922668E-1,-1.560025909E1,2.847528534E0,1.586116463E1
4.847143750E-1,2.757864990E0,-1.689880875E1,5.109474792E0,1.786847193E1
4.947573750E-1,5.917644196E0,-1.633837418E1,8.260871429E0,1.924065956E1
5.048003750E-1,1.170221512E1,-1.673684555E1,1.140657990E1,2.339174860E1
5.148443750E-1,1.716929626E1,-1.883757706E1,1.566866684E1,2.991899337E1
5.248873750E-1,1.703278015E1,-1.693144089E1,2.094399673E1,3.186597385E1
5.349303750E-1,1.669912399E1,-1.659149780E1,2.153436905E1,3.190403723E1
5.449733750E-1,1.565833832E1,-1.685240524E1,1.932705917E1,3.004533804E1
5.550163750E-1,1.225905716E1,-1.648836227E1,1.711930023E1,2.674361631E1
5.650593750E-1,1.138322845E1,-1.688024734E1,1.489896744E1,2.522894907E1
5.751023750E-1,1.344863342E1,-1.698787354E1,1.441083252E1,2.602163873E1
5.851463750E-1,1.379591125E1,-1.400802017E1,1.594095062E1,2.531137498E1
5.951893750E-1,1.719130051E1,-1.414348846E1,1.612626526E1,2.748882519E1
6.052323750E-1,1.938977875E1,-1.538096512E1,1.761087799E1,3.037565854E1
6.152753750E-1,1.872246643E1,-1.338232132E1,2.038356216E1,3.074259065E1
6.253183750E-1,1.790561508E1,-1.323397980E1,2.071212891E1,3.040956357E1
6.353613750E-1,1.764365982E1,-1.304492294E1,1.788331146E1,2.830691745E1
6.454043750E-1,1.709774506E1,-1.069855225E1,1.565953583E1,2.553454461E1
6.554473750E-1,1.728844849E1,-7.989485779E0,1.787597672E1,2.612035370E1
6.654913750E-1,1.718246887E1,-8.518934784E0,1.815544556E1,2.640889414E1
6.755343750E-1,1.610186600E1,-8.068970490E0,1.497246460E1,2.342120982E1
6.855773750E-1,1.612836090E1,-7.614515533E0,1.264106277E1,2.186095470E1
6.956203750E-1,1.355386459E1,-7.805218964E0,1.429691940E1,2.119034197E1
7.056633750E-1,1.178169983E1,-7.046596527E0,1.553649170E1,2.073271685E1
7.157063750E-1,1.353964417E1,-7.934999084E0,1.658955185E1,2.283636147E1
7.257493750E-1,1.282428177E1,-8.097710724E0,1.444466217E1,2.094476992E1
7.357923750E-1,1.153770721E1,-7.908055115E0,8.438851318E0,1.633616341E1
7.458363750E-1,1.288730072E1,-7.294181671E0,4.463717651E0,1.546649221E1
7.558793750E-1,1.628448624E1,-5.567971344E0,5.097499695E0,1.794913090E1
7.659223750E-1,1.459914093E1,-5.113217010E0,3.875590668E0,1.594678987E1
7.759653750E-1,9.848170624E0,-1.026026367E1,3.425776062E0,1.462858219E1
7.860083750E-1,8.362210693E0,-1.426668228E1,4.435875549E0,1.712138379E1
7.960513750E-1,6.651418304E0,-1.440514435E1,7.568710785E0,1.757938941E1
8.060943750E-1,3.541934509E0,-1.255978180E1,6.806944885E0,1.471828514E1
8.161383750E-1,3.143463135E-1,-1.159803177E1,-8.114625549E-1,1.163063309E1
8.261813750E-1,-6.909631348E-1,-1.136646332E1,-4.270619202E-1,1.139545086E1
8.362243750E-1,-2.851570129E-1,-9.884544983E0,-9.017248535E-1,9.929685380E0
8.462673750E-1,-8.352630615E-1,-1.084270248E1,1.462309113E0,1.097270293E1
8.563103750E-1,-9.722282410E-1,-1.146361130E1,-9.258247375E-1,1.154195664E1
8.663533750E-1,-2.552192688E-1,-1.201057388E1,-5.903723145E-1,1.202778289E1
8.763963750E-1,9.093589783E-1,-1.172047714E1,7.461982727E-1,1.177936034E1
8.864393750E-1,1.014590149E0,-1.513203278E1,1.835483093E0,1.527667527E1
8.964833750E-1,1.403631134E0,-1.183783310E1,2.684218140E0,1.221922665E1
9.065263750E-1,2.048939209E0,-1.058703415E1,1.488504639E0,1.088572873E1
9.165693750E-1,2.842139740E0,-1.047252228E1,3.889811096E0,1.152745035E1
9.266123750E-1,7.863148499E-1,-1.312874863E1,5.091661835E0,1.410345177E1
9.366553750E-1,3.534150696E-1,-9.801767120E0,4.420307922E-1,9.818092081E0
9.466983750E-1,4.005670166E-1,-8.137527924E0,-2.090552673E0,8.411315303E0
9.567413750E-1,-3.572321320E0,-9.162296906E0,5.284011841E-1,9.848267462E0
9.667843750E-1,-6.840774536E-1,-7.751480713E0,-2.204765167E0,8.087917201E0
9.768283750E-1,2.739303589E-2,-6.673721924E0,1.719174957E0,6.891652721E0
9.868713750E-1,-1.661544800E-1,-7.685318298E0,4.319866791E0,8.817764668E0
9.969143750E-1,-6.700067139E-1,-8.159681854E0,3.792812805E0,9.023012021E0
1.006957375E0,5.915698242E-1,-4.503534851E0,-4.839436340E-1,4.567929778E0
1.017000375E0,-2.035167847E0,-5.945635986E0,6.739584961E0,9.214906451E0
1.027043375E0,-1.058898010E0,-1.092278595E1,1.437356003E1,1.808390848E1
1.037086375E0,2.469564514E0,-6.690936127E0,3.871998138E0,8.115401698E0
1.047130375E0,1.417402496E0,-1.345701599E0,2.046394501E0,2.829783222E0
1.057173375E0,3.526815948E0,4.631069641E0,-4.614304504E0,7.428125121E0
1.067216375E0,3.748954010E0,5.857469330E0,1.084794159E0,7.038563880E0
1.077259375E0,3.944297791E0,2.030826874E0,1.295106812E0,4.621584631E0
1.087302375E0,4.537514191E0,6.628216553E-1,1.306782532E-1,4.587531404E0
1.097345375E0,5.334157562E0,1.802701263E0,-4.032614136E-1,5.644961338E0
1.107388375E0,3.644770660E0,1.145867157E0,1.243164825E0,4.017813272E0
1.117431375E0,-3.519181824E-1,-7.155120850E-1,9.719288635E-1,1.257159364E0
1.127475375E0,-1.981579285E0,-1.646426239E0,-8.003855896E-1,2.697775549E0
1.137518375E0,-2.423310699E0,-3.876937866E-1,-2.002835083E0,3.167663112E0
1.147561375E0,-1.955683136E0,7.921527100E-1,-2.650238800E0,3.387619834E0
1.157604375E0,-6.441105652E-1,-2.423460388E-1,-1.079854431E0,1.280506000E0
1.167647375E0,4.302053833E-1,-4.317771149E0,2.527344360E0,5.021523064E0
1.177690375E0,5.545967102E-1,-8.500074005E0,8.666228485E0,1.215163988E1
1.187733375E0,1.097517700E0,-1.044677582E1,8.638835449E0,1.360033632E1
1.197776375E0,-5.221142578E-1,-1.011027557E1,8.533903656E0,1.324076233E1
1.207820375E0,5.912704468E-2,-1.133981873E1,8.372988281E0,1.409616677E1
1.217863375E0,9.533674622E-1,-1.194186676E1,7.318431244E0,1.403839475E1
1.227906375E0,1.701811066E0,-1.223974731E1,4.531676331E0,1.316220595E1
1.237949000E0,3.365451508E0,-1.315629135E1,2.284848633E0,1.377079516E1
1.247992000E0,3.981719971E0,-1.370699615E1,7.464976501E-1,1.429311360E1
1.258035000E0,4.506828003E0,-1.303624100E1,4.592449951E-1,1.380094142E1
1.268078000E0,4.340224457E0,-1.331002167E1,2.654430084E0,1.424921837E1
1.278122000E0,3.016676788E0,-1.591161163E1,6.287375336E0,1.737270308E1
1.288165000E0,2.590662689E0,-1.658401337E1,8.992400208E0,1.904217146E1
1.298208000E0,3.476071472E0,-1.579350723E1,9.554481354E0,1.878313226E1
1.308251000E0,4.729415131E0,-1.472652603E1,8.802744598E0,1.779680446E1
1.318294000E0,6.460864563E0,-1.411310165E1,7.113208008E0,1.707396080E1
1.328337000E0,6.668632507E0,-1.441367661E1,5.127736816E0,1.668887107E1
1.338380000E0,6.665039978E0,-1.398556686E1,3.107986908E0,1.580121581E1
1.348423000E0,6.525829468E0,-1.133293304E1,6.396199036E-1,1.309316368E1
1.358467000E0,-8.405021667E-1,-1.457758575E1,-1.227746887E0,1.465332088E1
1.368510000E0,-8.780440979E0,-1.899699554E1,-1.243314514E0,2.096491866E1
1.378553000E0,-1.590248062E1,-2.076451996E1,-1.503473511E0,2.619760698E1
1.388596000E0,-9.715546417E0,-1.403301819E1,-1.223106537E0,1.711179217E1
1.398639000E0,-5.309608612E0,-1.078612015E1,-1.536704407E0,1.211997491E1
1.408682000E0,-5.516777802E0,-9.691596222E0,-2.044747925E0,1.133767475E1
1.418725000E0,-3.815864868E0,-7.962841187E0,-2.144440613E0,9.086599474E0
1.428768000E0,-3.271446991E0,-6.896458740E0,-2.726430359E0,8.105364339E0
1.438812000E0,-3.559298401E0,-6.271358643E0,-2.750380554E0,7.717715823E0
1.448855000E0,-4.151017914E0,-8.616232452E0,-1.550924835E0,9.688951400E0
1.458898000E0,-5.130580902E0,-1.114567245E1,-4.667294312E-1,1.227870967E1
1.468941000E0,-6.398743744E0,-1.205203766E1,1.480421448E0,1.372542097E1
1.478984000E0,-2.622546387E0,-1.354518265E1,4.139042816E0,1.440421459E1
1.489027000E0,4.489164734E-1,-1.177361664E1,2.668351135E0,1.208054935E1
1.499070000E0,1.391356659E0,-1.091290649E1,1.817670135E0,1.115039579E1
1.509113000E0,3.839216309E0,-1.102517303E1,1.425635376E0,1.176122691E1
1.519157000E0,5.397326202E0,-1.229243774E1,6.884184265E-1,1.344280758E1
1.529200000E0,4.832101593E0,-1.158396103E1,3.505859528E0,1.303182297E1
1.539243000E0,8.270002441E0,-8.037535858E0,2.113005981E0,1.172432161E1
1.549286000E0,8.356672211E0,-7.457791443E0,-3.962260437E-1,1.120756971E1
1.559329000E0,5.193450165E0,-6.340664520E0,-1.762734375E0,8.383506644E0
1.569372000E0,4.990322571E0,-5.061574402E0,-3.576811981E0,7.957162731E0
1.579415000E0,6.199508057E0,-3.447031860E0,-3.042273560E0,7.718248325E0
1.589458000E0,3.694317627E0,-3.573668518E0,-2.727927246E0,5.818992736E0
1.599502000E0,-1.564247131E-1,-5.527106323E0,9.324110413E-1,5.607384716E0
1.609545000E0,-4.393363953E0,-1.148621429E1,7.578440552E0,1.444532889E1
1.619588000E0,-6.258335724E0,-1.576132416E1,5.655988312E0,1.787669737E1
1.629631000E0,-5.198240204E0,-1.240141113E1,-3.911366272E-1,1.345249743E1
1.639674000E0,-3.874393158E0,-8.503666534E0,5.110372925E-1,9.358655138E0
1.649717000E0,-3.050207062E0,-6.253994751E0,5.885760498E-1,6.983024791E0
1.659760000E0,-1.424886932E0,-5.769602051E0,6.647676086E-1,5.980010583E0
1.669803000E0,-3.520678711E-1,-6.803052979E0,5.905220032E-1,6.837704136E0
1.679847000E0,1.624122620E-1,-7.176676025E0,1.347198486E-1,7.179777570E0
1.689890000E0,5.445675659E-1,-6.594386902E0,-9.490264893E-2,6.617514560E0
1.699933000E0,4.393363953E-1,-6.138435059E0,-2.559677124E-2,6.154190169E0
1.709976000E0,-3.047662354E-1,-6.196813660E0,-1.071771240E-1,6.205229160E0
1.720019000E0,-7.432044983E-1,-6.567442932E0,-3.951782227E-2,6.609479651E0
1.730062000E0,-2.396516418E-1,-5.485343170E0,1.645079041E-1,5.493039728E0
1.740105000E0,-1.092727661E-1,-4.457430725E0,5.017565918E-1,4.486913068E0
1.750149000E0,2.320175171E-2,-4.193529510E0,2.656974792E-1,4.202002288E0
1.760192000E0,-9.969268799E-2,-3.707041168E0,-4.194277954E-1,3.732025259E0
1.770235000E0,2.574645996E-1,-4.414769440E0,-1.200503540E0,4.582323207E0
1.780278000E0,1.020727386E0,-6.120173035E0,-1.505419464E0,6.384723184E0
1.790321000E0,1.452579346E0,-7.440128174E0,-6.081852722E-1,7.604957812E0
1.800364000E0,3.657943268E0,-9.643995209E0,1.424737244E0,1.041235174E1
1.810407000E0,3.766766968E0,-1.072399933E1,2.162702637E0,1.157021943E1
1.820450000E0,1.702559509E0,-8.613837433E0,4.249662781E-1,8.790762227E0
1.830494000E0,2.055226135E-1,-5.577102356E0,2.429447937E-1,5.586173324E0
1.840537000E0,1.901645508E0,-6.487958221E0,1.061592407E0,6.843744294E0
1.850580000E0,2.882855072E0,-9.471703491E0,6.283932495E-1,9.920629943E0
1.860623000E0,2.964136047E0,-1.039677979E1,3.577560425E-2,1.081112447E1
1.870666000E0,2.264940033E0,-1.048584457E1,1.582209778E-1,1.072883608E1
1.880709000E0,2.156715088E0,-1.118908218E1,1.507066040E0,1.149426936E1
1.890752000E0,1.125808868E0,-1.062191162E1,3.013533325E0,1.109837084E1
1.900796000E0,-1.293310547E-1,-1.110181366E1,6.570586395E0,1.290114718E1
1.910839000E0,1.949695587E0,-1.498878067E1,5.234315186E0,1.599571550E1
1.920882000E0,4.025279388E0,-1.572614731E1,3.188818817E0,1.654337175E1
1.930925000E0,6.397396545E0,-1.806937454E1,4.919819183E0,1.978973471E1
1.940968000E0,1.105151825E0,-1.535776337E1,3.228785706E-1,1.540086058E1
1.951011000E0,-4.899311829E0,-7.436385956E0,1.517095184E0,9.033530333E0
1.961054000E0,-1.303190002E0,-1.021730301E1,1.475182343E0,1.040517890E1
1.971097000E0,2.100581818E0,-1.170640640E1,3.234773254E-1,1.189777426E1
1.981141000E0,3.612587585E0,-1.269899231E1,-1.073268127E0,1.324639948E1
1.991184000E0,2.936443634E0,-1.436338120E1,-2.371817780E0,1.485109222E1
2.001227000E0,2.413880310E0,-1.439870773E1,-3.982318726E0,1.513302564E1
2.011270000E0,3.551813965E0,-2.018806870E1,-2.124382324E0,2.060792324E1
2.021313000E0,6.512956238E-1,-2.136492142E1,-2.092498627E0,2.147702502E1
2.031356000E0,-3.431464233E0,-2.027833099E1,-6.683601379E-1,2.057747215E1
2.041399000E0,-5.212310944E0,-1.820529190E1,-2.664459229E-1,1.893863332E1
2.051442000E0,-5.492378540E0,-1.665751053E1,-1.022074585E0,1.756939144E1
2.061486000E0,-4.135001221E0,-1.729443604E1,-2.203268280E0,1.791787219E1
2.071529000E0,4.505630493E-2,-1.550580551E1,-2.231559448E0,1.566562773E1
2.081572000E0,4.014052734E0,-1.032253418E1,-3.309617615E-1,1.108047232E1
2.091615000E0,6.552174683E0,-7.214098206E0,-1.802252197E-1,9.747137381E0
2.101658000E0,8.740923157E0,-5.274581451E0,7.559280396E-2,1.020934187E1
2.111701000E0,8.038883057E0,-5.039121094E0,7.348219299E-1,9.516109786E0
2.121744000E0,5.721551971E0,-5.525160370E0,-1.017883301E-1,7.954490238E0
2.131787000E0,3.303031311E0,-5.879323883E0,1.250200195E0,6.858532328E0
2.141831000E0,2.627037048E-1,-6.838678894E0,1.456022186E0,6.996895230E0
2.151874000E0,-1.523082733E0,-7.506290588E0,1.304088135E0,7.769480373E0
2.161917000E0,-2.986140289E0,-7.304809570E0,1.440005493E0,8.021900804E0
2.171960000E0,-3.341201935E0,-6.719227295E0,1.753154297E0,7.706179066E0
2.182003000E0,-2.817441101E0,-6.550079041E0,1.931433563E0,7.387282681E0
2.192046000E0,-2.508932648E0,-7.167994080E0,2.265838165E0,7.925206921E0
2.202089000E0,-1.428778839E0,-7.420369263E0,2.256258087E0,7.886316600E0
2.212132000E0,1.496887207E-3,-7.468119965E0,1.890568542E0,7.703704788E0
2.222176000E0,1.151106262E0,-7.697143707E0,1.417851562E0,7.910838763E0
2.232219000E0,1.490450592E0,-7.978558502E0,9.400451660E-1,8.170833718E0
2.242261500E0,8.728349304E-1,-8.403524780E0,5.105882263E-1,8.464146140E0
2.252304500E0,-1.884580994E-1,-8.869206390E0,4.864883423E-1,8.884537656E0
2.262347500E0,-1.053658905E0,-9.080866241E0,7.698490906E-1,9.174148266E0
2.272390500E0,-1.582658844E0,-8.970994720E0,1.218765564E0,9.190698820E0
2.282433500E0,-1.764081573E0,-8.871601410E0,1.547032928E0,9.176633710E0
2.292477500E0,-1.409319305E0,-8.798104248E0,1.592987366E0,9.051542853E0
2.302520500E0,-6.765930176E-1,-8.546926575E0,1.779798889E0,8.756449970E0
2.312563500E0,2.999761963E-1,-8.290210419E0,2.130369873E0,8.564814668E0
2.322606500E0,1.271006927E0,-8.061785431E0,1.879042511E0,8.374881713E0
2.332649500E0,2.232906647E0,-7.874824219E0,1.585652618E0,8.337447019E0
2.342692500E0,3.277284851E0,-7.780071259E0,1.701661377E0,8.611954263E0
2.352735500E0,4.489164734E0,-7.707322540E0,2.485730896E0,9.259280687E0
2.362778500E0,5.759123840E0,-7.764054565E0,3.850892029E0,1.040564367E1
2.372822500E0,6.278543701E0,-8.180189209E0,4.795577545E0,1.137247425E1
2.382865500E0,5.613925781E0,-9.908345490E0,4.574936371E0,1.227279576E1
2.392908500E0,4.344116364E0,-1.162826889E1,5.140160980E0,1.343537269E1
2.402951500E0,2.369722137E0,-1.215681976E1,5.489235077E0,1.354752935E1
2.412994500E0,3.966002655E0,-1.185983734E1,8.262068939E0,1.498821877E1
2.423037500E0,3.641477509E0,-1.073627380E1,1.000938538E1,1.512335046E1
2.433080500E0,2.610271912E0,-1.031504974E1,8.042475586E0,1.333773535E1
2.443123500E0,1.323248291E0,-1.091500214E1,2.854563904E0,1.135943629E1
2.453167500E0,1.335373077E0,-1.279494278E1,-3.000510406E0,1.320972538E1
2.463210500E0,1.282233582E0,-1.618718857E1,-7.937244415E0,1.807398809E1
2.473253500E0,-9.946815491E-1,-2.029015640E1,-1.105855362E1,2.312944976E1
2.483296500E0,-4.163292389E0,-2.254177414E1,-8.670569458E0,2.450802643E1
2.493339500E0,-5.584586792E0,-1.942570404E1,-2.428849182E0,2.035791972E1
2.503382500E0,-5.471272430E0,-1.202644089E1,3.649261322E0,1.370719558E1
2.513425500E0,-3.321293335E0,-7.480843506E0,3.915557556E0,9.073345577E0
2.523468500E0,-1.745370483E0,-5.743855591E0,2.180515594E0,6.386927542E0
2.533512500E0,-1.059496765E0,-5.580096130E0,3.072510681E0,6.457579121E0
2.543555500E0,-9.532177734E-1,-5.586233368E0,4.125121765E0,7.009369226E0
2.553598500E0,-1.232237549E0,-6.724466400E0,4.063599701E0,7.952968017E0
2.563641500E0,-2.468217316E0,-8.812624054E0,3.420986023E0,9.770239752E0
2.573684500E0,-4.917424164E0,-1.120300323E1,1.801054688E0,1.236657349E1
2.583727500E0,-6.327192535E0,-1.320434143E1,4.743635559E-1,1.464967641E1
2.593770500E0,-4.616849213E0,-1.442969330E1,3.115022278E-1,1.515349395E1
2.603813500E0,-1.704355774E0,-1.531764679E1,-6.857240295E-1,1.542742199E1
2.613857500E0,-1.037342834E-1,-1.597732498E1,-9.190887451E-1,1.600407443E1
2.623900500E0,4.694238281E-1,-1.483415222E1,2.585124207E-1,1.484382901E1
2.633943500E0,4.472698975E-1,-1.213855774E1,1.272952881E0,1.221331419E1
2.643986500E0,1.008602600E0,-9.950408020E0,1.163979492E0,1.006890000E1
2.654029500E0,7.487429810E-1,-7.594906311E0,1.429676971E0,7.764482865E0
2.664072500E0,8.592132568E-2,-5.904621277E0,2.165247345E0,6.289692438E0
2.674115500E0,-1.037342834E-1,-4.805007935E0,1.629810791E0,5.074952735E0
2.684159500E0,-7.731422424E-1,-4.417164459E0,1.034648438E0,4.602128657E0
2.694202500E0,-1.054257660E0,-4.591102753E0,7.831713867E-1,4.775252990E0
2.704245500E0,-1.146465912E0,-5.067112885E0,7.804769897E-1,5.253490402E0
2.714288500E0,-1.094523926E0,-5.781726837E0,1.226250000E0,6.010826641E0
2.724331500E0,-8.949888611E-1,-6.538702698E0,1.518442383E0,6.772097555E0
2.734374500E0,-6.975494385E-1,-7.326664124E0,1.456321564E0,7.502496577E0
2.744417500E0,-7.358697510E-1,-8.269703064E0,8.523275757E-1,8.346014339E0
2.754460500E0,-4.248165894E-1,-8.981921997E0,7.896080017E-1,9.026564833E0
2.764503500E0,1.291813660E-1,-9.236392822E0,1.019230499E0,9.293356283E0
2.774547500E0,5.909710693E-1,-9.116043091E0,9.087602234E-1,9.180268710E0
2.784590500E0,8.060737610E-1,-8.924142151E0,3.357518005E-1,8.966760692E0
2.794633500E0,7.970924377E-1,-8.955726471E0,-1.441502380E-1,8.992284041E0
2.804676500E0,6.906637573E-1,-9.180259552E0,-5.234614563E-1,9.221073352E0
2.814719500E0,4.480183411E-1,-9.351653137E0,-5.275030518E-1,9.377227538E0
2.824762500E0,2.664459229E-2,-9.620643768E0,-2.776725769E-1,9.624686931E0
2.834805500E0,-4.382885742E-1,-9.871372375E0,1.437011719E-1,9.882142454E0
2.844849500E0,-8.162525940E-1,-9.786648560E0,8.394543457E-1,9.856441646E0
2.854892500E0,-9.434880066E-1,-9.612560577E0,1.432221680E0,9.764361188E0
2.864935500E0,-8.128097534E-1,-9.828262024E0,1.983225861E0,1.005925340E1
2.874978500E0,-6.032455444E-1,-9.287137299E0,2.490820312E0,9.634262308E0
2.885021500E0,4.983137512E-1,-8.879983978E0,3.233426056E0,9.463481183E0
2.895064500E0,6.295907593E-1,-8.353977814E0,3.392545166E0,9.038511633E0
2.905107500E0,1.107097778E0,-7.895780640E0,2.881208496E0,8.477639990E0
2.915150500E0,1.856589203E0,-7.543114014E0,1.939816132E0,8.006770829E0
2.925194500E0,2.460433502E0,-7.439529419E0,9.409432983E-1,7.892129325E0
2.935237500E0,2.713856506E0,-8.153544617E0,5.941145325E-1,8.613842292E0
2.945280500E0,2.584226074E0,-9.217831421E0,1.144669647E0,9.641416343E0
2.955323500E0,2.468516693E0,-1.006491989E1,2.157912598E0,1.058549828E1
2.965366500E0,2.356100464E0,-1.051727921E1,3.066972198E0,1.120583284E1
2.975409500E0,1.794019318E0,-1.063179108E1,3.601660309E0,1.136773697E1
2.985452500E0,8.607101440E-1,-1.064421524E1,3.379073181E0,1.120081585E1
2.995495500E0,1.035845947E-1,-1.001791763E1,2.919977875E0,1.043530902E1
3.005538500E0,-4.014651489E-1,-9.144783325E0,2.063009949E0,9.383189563E0
3.015582500E0,-4.311035156E-1,-8.888216858E0,1.021026764E0,8.957050006E0
3.025625500E0,-1.664538574E-1,-9.192534027E0,-3.835025024E-1,9.202035802E0
3.035668500E0,4.370910645E-2,-1.017434235E1,-7.918533325E-1,1.020520379E1
3.045711500E0,-4.346960449E-1,-1.129431335E1,-1.975891113E-2,1.130269283E1
3.055754500E0,-1.844464417E0,-1.345102844E1,-1.305285645E-1,1.357752749E1
3.065797500E0,-3.358416138E0,-1.572854233E1,-2.615061951E-1,1.608522267E1
3.075840500E0,-3.715723114E0,-1.648327286E1,-6.852749634E-1,1.691078012E1
3.085883500E0,-4.075275421E0,-1.681049240E1,-1.595232697E0,1.737081725E1
3.095927500E0,-4.388274536E0,-1.619616989E1,-1.762884064E0,1.687248152E1
3.105970500E0,-4.116439819E0,-1.586835159E1,-2.155367889E0,1.653466872E1
3.116013500E0,-3.067720642E0,-1.590592346E1,-3.425626373E0,1.655730132E1
3.126056500E0,-8.506809998E-1,-1.651859940E1,-3.719315643E0,1.695349796E1
3.136099500E0,1.852996674E0,-1.598555786E1,-3.050057373E0,1.637908748E1
3.146142500E0,4.653223572E0,-1.161719193E1,-2.314487000E0,1.272668409E1
3.156185500E0,7.226821747E0,-8.348589020E0,-8.442443848E-1,1.107423315E1
3.166228500E0,7.879165192E0,-7.049889679E0,1.141975250E0,1.063420406E1
3.176272500E0,6.855743408E0,-6.605763245E0,2.031575317E0,9.734712322E0
3.186315500E0,4.999303894E0,-6.565347290E0,1.809736633E0,8.448193366E0
3.196358500E0,3.219355316E0,-6.506369934E0,1.571282501E0,7.427383595E0
3.206401500E0,1.417252808E0,-7.564669189E0,7.869136047E-1,7.736411215E0
3.216444500E0,-5.074447632E-1,-8.037984924E0,3.338058472E-1,8.060901201E0
3.226487500E0,-1.727108459E0,-8.062384186E0,5.360353088E-1,8.262703930E0
3.236531500E0,-2.395767975E0,-7.848628693E0,9.859996033E-1,8.265160117E0
3.246574500E0,-2.802023163E0,-7.632178802E0,1.341510315E0,8.240214621E0
3.256618500E0,-3.093018036E0,-7.655530243E0,1.459614716E0,8.384770658E0
3.266661500E0,-2.458038483E0,-7.620952148E0,1.537003784E0,8.153725864E0
3.276704500E0,-1.278042297E0,-8.040679321E0,1.490151215E0,8.276863337E0
3.286747500E0,-1.335223389E-1,-8.020321655E0,1.116528168E0,8.098766747E0
3.296790500E0,2.022294617E-1,-7.715705109E0,5.724096680E-1,7.739551338E0
3.306833500E0,-2.163002014E-1,-7.629933472E0,3.147953796E-1,7.639487332E0
3.316876500E0,-1.110241241E0,-7.657476196E0,4.067042542E-1,7.748224678E0
3.326920500E0,-1.894909515E0,-7.712112579E0,5.641767883E-1,7.961511035E0
3.336963500E0,-2.182611237E0,-7.580087128E0,7.945477295E-1,7.927976966E0
3.347006500E0,-2.402503967E0,-7.399412842E0,1.009650421E0,7.844917443E0
3.357049500E0,-2.325863342E0,-7.326215057E0,1.172811127E0,7.775509841E0
3.367092500E0,-1.904489594E0,-7.298672333E0,1.444346466E0,7.680093433E0
3.377135500E0,-1.025517426E0,-7.309599609E0,1.758692780E0,7.587814753E0
3.387178500E0,1.721420288E-2,-7.413034515E0,1.871408386E0,7.645622696E0
3.397221500E0,1.216969299E0,-7.619754639E0,1.807940369E0,7.925296424E0
3.407265500E0,2.571801910E0,-7.980354767E0,1.799258423E0,8.575404255E0
3.417308500E0,4.173321533E0,-8.580905914E0,1.614243164E0,9.677517240E0
3.427351500E0,5.128784637E0,-9.170529785E0,1.377136230E0,1.059714832E1
3.437394500E0,5.894442444E0,-1.002420456E1,1.248403931E0,1.169562487E1
3.447437500E0,6.145021362E0,-1.019425095E1,2.072140961E0,1.208212763E1
3.457480500E0,5.417833557E0,-1.058224411E1,4.032913513E0,1.255393175E1
3.467523500E0,5.529501343E0,-1.161300064E1,6.047723694E0,1.421309716E1
3.477566500E0,5.086422729E0,-1.126961472E1,6.678362274E0,1.405263088E1
3.487609500E0,4.940925293E0,-1.056098831E1,6.595285034E0,1.339570833E1
3.497653500E0,4.563560028E0,-9.641600189E0,6.982080688E0,1.274896016E1
3.507696500E0,3.500770111E0,-9.021439819E0,7.085515594E0,1.199359408E1
3.517739500E0,2.974314880E0,-8.885672150E0,3.776796112E0,1.010276732E1
3.527782500E0,2.076182556E0,-1.016281631E1,-5.724096680E-1,1.038850433E1
3.537825500E0,1.022523651E0,-1.238434662E1,-3.615731049E0,1.294183553E1
3.547868500E0,-4.655319214E-1,-1.539458679E1,-6.615942078E0,1.676247929E1
3.557911500E0,-2.616558838E0,-1.927302155E1,-9.411828003E0,2.160736555E1
3.567954500E0,-4.604574738E0,-2.189826233E1,-6.487359467E0,2.329853717E1
3.577998500E0,-4.159999237E0,-1.957254868E1,1.179547119E-1,2.001010166E1
3.588041500E0,-3.255130920E0,-1.197898956E1,3.485052795E0,1.289331847E1
3.598084500E0,-1.468895416E0,-8.112380219E0,2.469414825E0,8.606182437E0
3.608127500E0,-1.136287079E0,-7.356901245E0,2.299518127E0,7.791208371E0
3.618170500E0,-1.350791016E0,-6.786287842E0,3.894301758E0,7.940020480E0
3.628213500E0,-1.674567719E0,-6.635401611E0,4.164639587E0,8.011052021E0
3.638256500E0,-2.752925262E0,-7.722890167E0,3.805985413E0,9.039201015E0
3.648300500E0,-4.777764587E0,-9.552236023E0,3.405418396E0,1.121022399E1
3.658343500E0,-6.653663635E0,-1.143996048E1,2.516417084E0,1.347131361E1
3.668386500E0,-6.762637024E0,-1.297157547E1,2.016905823E0,1.476695428E1
3.678429500E0,-4.309089203E0,-1.401460648E1,9.994715881E-1,1.469613513E1
3.688472500E0,-1.006656647E0,-1.523861115E1,-7.014413452E-1,1.528792488E1
3.698515500E0,2.272274780E-1,-1.495300507E1,-8.559201050E-1,1.497920532E1
3.708558500E0,4.884342957E-1,-1.296693512E1,-1.797761536E-1,1.297737623E1
3.718601500E0,7.878117371E-1,-1.111214218E1,5.348377991E-1,1.115286522E1
3.728645500E0,7.074288940E-1,-9.152567139E0,1.786983948E0,9.352179024E0
3.738688500E0,6.300398254E-1,-7.384743347E0,2.256258087E0,7.747392145E0
3.748731500E0,2.055226135E-1,-5.943390656E0,1.483714600E0,6.129236579E0
3.758774500E0,-2.941383362E-1,-5.297932892E0,6.610253906E-1,5.347108083E0
3.768817500E0,-1.942959595E-1,-5.422773285E0,3.951782227E-1,5.440623755E0
3.778860500E0,-4.460723877E-2,-5.449567566E0,6.584806824E-1,5.489387331E0
3.788903500E0,2.734812927E-1,-5.816454620E0,1.068178711E0,5.920045788E0
3.798946500E0,4.574487305E-1,-6.754553833E0,1.454525299E0,6.924514472E0
3.808989500E0,5.962101746E-1,-7.843090210E0,1.478176117E0,8.003407727E0
3.819033500E0,2.281256104E-1,-8.680748291E0,9.792636108E-1,8.738786495E0
3.829076500E0,-9.909393311E-2,-9.345815277E0,4.173321533E-1,9.355653314E0
3.839119500E0,-3.323089600E-1,-9.565857697E0,5.361849976E-1,9.586634293E0
3.849162500E0,-4.278103638E-1,-9.229656830E0,7.629634094E-1,9.271013972E0
3.859205500E0,-4.421804810E-1,-8.862021332E0,6.704557800E-1,8.898340105E0
3.869248500E0,-4.640350342E-1,-8.683742065E0,5.292993164E-1,8.712224890E0
3.879291500E0,-4.257147217E-1,-8.623267822E0,4.716691589E-1,8.646644017E0
3.889334500E0,-4.845423889E-1,-8.696914673E0,6.012995911E-1,8.731132077E0
3.899378500E0,-4.662803650E-1,-8.756939850E0,9.184899902E-1,8.817314601E0
3.909421500E0,-4.505630493E-1,-8.813073120E0,1.405128021E0,8.935751207E0
3.919464500E0,-3.534150696E-1,-8.892108765E0,1.792372742E0,9.077835675E0
3.929507500E0,-8.352630615E-2,-9.012009430E0,1.949545898E0,9.220847023E0
3.939550500E0,3.701802063E-1,-9.255552979E0,1.791025543E0,9.434514657E0
3.949593500E0,9.117539978E-1,-9.292077026E0,1.590442657E0,9.471193096E0
3.959636500E0,1.224004669E0,-9.191935272E0,1.569785614E0,9.405003368E0
3.969679500E0,1.424737244E0,-9.006321259E0,1.919757843E0,9.318217051E0
3.979723500E0,1.753902740E0,-8.530460815E0,2.229613495E0,8.989778244E0
3.989766500E0,1.800156555E0,-8.268954620E0,2.413880310E0,8.800170015E0
3.999809500E0,1.928888855E0,-8.250842285E0,2.368674316E0,8.798160526E0
4.009852500E0,2.225122833E0,-8.281229095E0,2.145039368E0,8.839181005E0
4.019895500E0,2.418221283E0,-8.985514526E0,2.346370697E0,9.596495242E0
4.029938500E0,2.396666107E0,-9.933343506E0,2.727029114E0,1.057601104E1
4.039981500E0,2.201921082E0,-1.107516907E1,3.241060181E0,1.174786353E1
4.050024500E0,1.634301453E0,-1.156031021E1,3.431763611E0,1.216917067E1
4.060068500E0,1.259929962E0,-1.115435440E1,3.377127228E0,1.172228791E1
4.070111500E0,9.000782776E-1,-1.026475433E1,2.716700592E0,1.065625565E1
4.080154500E0,-2.395019531E-2,-9.374106445E0,1.665436707E0,9.520930873E0
4.090197500E0,-6.730004883E-1,-8.728199615E0,8.605604553E-1,8.796303910E0
4.100240500E0,-8.614585876E-1,-8.526868286E0,4.343966675E-1,8.581275787E0
4.110283500E0,-1.157542877E0,-9.014404449E0,1.224453735E-1,9.089245621E0
4.120326500E0,-1.647174683E0,-9.910291443E0,-1.954934692E-1,1.004814802E1
4.130369500E0,-1.806742859E0,-1.081680634E1,2.064207458E-1,1.096860194E1
4.140413500E0,-1.635498962E0,-1.198527649E1,9.912387085E-1,1.213689678E1
4.150456500E0,-2.075134735E0,-1.370190674E1,8.509803772E-1,1.388425727E1
4.160499500E0,-3.366948395E0,-1.580982330E1,6.539900208E-1,1.617759430E1
4.170542500E0,-4.522994385E0,-1.722228607E1,1.978884888E-1,1.780740789E1
4.180585500E0,-4.697531433E0,-1.739966721E1,-8.396040344E-1,1.804217712E1
4.190628500E0,-4.101920013E0,-1.682710785E1,-1.571581879E0,1.739100848E1
4.200671500E0,-2.600991211E0,-1.558319458E1,-1.836830292E0,1.590518953E1
4.210714500E0,-8.054750061E-1,-1.420980057E1,-3.098257141E0,1.456593353E1
4.220757500E0,9.877958679E-1,-1.291379562E1,-4.848717041E0,1.382938592E1
4.230801500E0,3.568429413E0,-1.125105331E1,-4.491559753E0,1.262909332E1
4.240843750E0,6.476282501E0,-9.244925079E0,-2.092049561E0,1.147987570E1
4.250886750E0,9.823322296E0,-7.706574097E0,9.969268799E-1,1.252528676E1
4.260929750E0,8.778794403E0,-7.594606934E0,1.444346466E0,1.169749641E1
4.270972750E0,6.199508057E0,-7.242688751E0,2.035317535E0,9.748484906E0
4.281015750E0,3.900888062E0,-6.892566833E0,2.705773315E0,8.369325807E0
4.291058750E0,2.380050659E0,-7.391329651E0,1.371747437E0,7.885308249E0
4.301101750E0,8.864566040E-1,-7.900271301E0,3.115022278E-1,7.955949069E0
4.311145750E0,-8.318202209E-1,-8.308472443E0,6.755451965E-1,8.377290763E0
4.321188750E0,-1.949695587E0,-8.058641968E0,1.066981201E0,8.359513869E0
4.331231750E0,-2.311642914E0,-7.658973083E0,9.398954773E-1,8.055244575E0
4.341274750E0,-2.133663025E0,-7.424111481E0,9.608518982E-1,7.784162482E0
4.351317750E0,-1.632056122E0,-7.781867523E0,6.592291260E-1,7.978449246E0
4.361360750E0,-6.183641052E-1,-7.479496307E0,6.092330933E-1,7.529701464E0
4.371403750E0,-1.157093811E-1,-7.380701752E0,7.738906860E-1,7.422065333E0
4.381446750E0,-4.442761230E-1,-7.472460938E0,1.150208130E0,7.573508598E0
4.391490750E0,-9.409432983E-1,-7.515720978E0,1.064735870E0,7.648862568E0
4.401533750E0,-1.734443207E0,-7.499554596E0,9.428892517E-1,7.755040459E0
4.411576750E0,-2.409689026E0,-7.539521484E0,1.141376495E0,7.997107334E0
4.421619750E0,-2.619851990E0,-7.489076385E0,1.320254517E0,8.043193492E0
4.431662750E0,-2.585273895E0,-7.307653656E0,1.632654877E0,7.921553195E0
4.441705750E0,-2.148033142E0,-7.190297699E0,1.710642700E0,7.696799713E0
4.451748750E0,-1.235680389E0,-7.322472839E0,1.616937561E0,7.600000104E0
4.461791750E0,-1.791773987E-1,-7.566315765E0,1.673669586E0,7.751284325E0
4.471835750E0,8.749305725E-1,-8.006699982E0,1.966760101E0,8.291012809E0
4.481878750E0,1.804347839E0,-8.387358398E0,2.260000305E0,8.871925011E0
4.491921750E0,2.654579773E0,-9.054071960E0,2.327060852E0,9.717933167E0
4.501964750E0,3.833677826E0,-9.599986725E0,2.252815247E0,1.057979240E1
4.512007750E0,5.098098450E0,-9.691296844E0,2.943778381E0,1.133920956E1
4.522050750E0,6.090534668E0,-9.598040771E0,3.928730164E0,1.202713265E1
4.532093750E0,6.561305695E0,-9.333391113E0,3.927532654E0,1.206600327E1
4.542136750E0,6.075416107E0,-1.010608429E1,4.183051300E0,1.251165611E1
4.552180750E0,5.410648499E0,-1.053000275E1,5.979016571E0,1.326290746E1
4.562223750E0,5.175637207E0,-9.987530823E0,7.629933472E0,1.359241984E1
4.572266750E0,4.660109253E0,-9.442214813E0,8.669521637E0,1.363937844E1
4.582309750E0,3.333867188E0,-9.806706848E0,7.804919586E0,1.296930759E1
4.592352750E0,1.773062897E0,-1.099538498E1,4.110003204E0,1.187157821E1
4.602395750E0,1.018032990E0,-1.283461029E1,-1.081501007E0,1.292026536E1
4.612438750E0,3.893403625E-1,-1.633014130E1,-5.766907654E0,1.732288442E1
4.622481750E0,-1.512005768E0,-2.128274231E1,-9.781409454E0,2.347162654E1
4.632525750E0,-3.598816223E0,-2.538211761E1,-9.638606415E0,2.738806504E1
4.642568750E0,-4.617148590E0,-2.488335480E1,-5.433550873E0,2.588480021E1
4.652611750E0,-3.585044861E0,-1.572165665E1,1.217418365E0,1.617112061E1
4.662654750E0,-1.998344421E0,-7.882608032E0,4.626129913E0,9.355745176E0
4.672697750E0,-2.368075562E-1,-5.448819122E0,2.291734314E0,5.915889943E0
4.682740750E0,2.618055725E-1,-5.193150787E0,2.174378357E0,5.636069419E0
4.692783750E0,-6.277944946E-1,-5.363646240E0,2.711760864E0,6.042886223E0
4.702826750E0,-9.644444275E-1,-6.000721436E0,2.723885651E0,6.660207492E0
4.712870750E0,-1.736688538E0,-8.045469360E0,2.820285187E0,8.700555893E0
4.722913750E0,-3.750600586E0,-1.066232758E1,2.512375488E0,1.157861238E1
4.732956750E0,-5.507497101E0,-1.333561844E1,1.785636749E0,1.453821661E1
4.742999750E0,-5.489085388E0,-1.457489136E1,1.787433014E0,1.567649302E1
4.753042750E0,-2.848875732E0,-1.453447540E1,5.304968262E-1,1.482054301E1
4.763085750E0,-2.552192688E-1,-1.367032242E1,-1.358275452E0,1.374000597E1
4.773128750E0,9.169931030E-1,-1.191776688E1,-1.826052704E0,1.209167119E1
4.783171750E0,8.333171082E-1,-9.905651093E0,-2.321672058E-1,9.943351677E0
4.793215750E0,6.878196716E-1,-8.199049988E0,1.506467285E0,8.364625532E0
4.803258750E0,5.673202515E-1,-6.788233795E0,2.499053192E0,7.255841590E0
4.813301750E0,-7.619155884E-2,-5.579197998E0,2.570305023E0,6.143266506E0
4.823344750E0,-5.510041809E-1,-4.788542175E0,2.021396484E0,5.226833221E0
4.833387750E0,-6.978488159E-1,-4.597689056E0,1.159937897E0,4.792827303E0
4.843430750E0,-9.457333374E-1,-5.000202026E0,6.478527832E-1,5.129926420E0
4.853473750E0,-8.470884705E-1,-5.623805237E0,8.583151245E-1,5.751647509E0
4.863516750E0,-5.804928589E-1,-6.307583313E0,1.356928253E0,6.477949791E0
4.873560750E0,-1.041833496E-1,-6.965016174E0,1.357676697E0,7.096871881E0
4.883603750E0,3.088078308E-1,-7.721542969E0,1.312919769E0,7.838453063E0
4.893646750E0,4.495152283E-1,-8.576415253E0,1.327888641E0,8.690238821E0
4.903689750E0,2.770738220E-1,-9.431586914E0,8.478369141E-1,9.473670305E0
4.913732750E0,2.755769348E-1,-9.751172333E0,6.502478027E-1,9.776713493E0
4.923775750E0,5.179229736E-1,-9.666598206E0,8.551716614E-1,9.718162565E0
4.933818750E0,7.032376099E-1,-9.563163300E0,6.884184265E-1,9.613665033E0
4.943861750E0,7.503895569E-1,-9.482331390E0,5.189707947E-1,9.526123229E0
4.953905750E0,6.459068298E-1,-9.420959015E0,5.944139099E-1,9.461764756E0
4.963948750E0,5.099894714E-1,-9.251960449E0,8.167016602E-1,9.301927919E0
4.973991750E0,4.128414917E-1,-8.980724487E0,1.212029572E0,9.071541550E0
4.984034750E0,2.908451843E-1,-8.829389191E0,1.723066864E0,9.000647967E0
4.994077750E0,1.501377869E-1,-8.805588684E0,1.939816132E0,9.017972059E0
5.004120750E0,-9.879455566E-3,-8.856333160E0,2.093247070E0,9.100352628E0
5.014163750E0,-5.822891235E-2,-9.019044800E0,2.155218201E0,9.273161554E0
5.024206750E0,5.239105225E-2,-9.194180603E0,2.004781036E0,9.410358590E0
5.034250750E0,9.669891357E-2,-9.323511658E0,1.798360291E0,9.495858047E0
5.044293750E0,1.236428833E-1,-9.196276245E0,1.796114960E0,9.370849123E0
5.054336750E0,1.431024170E-1,-8.859925690E0,1.829495544E0,9.047973004E0
5.064379750E0,2.558180237E-1,-8.521180115E0,1.691632233E0,8.691235414E0
5.074422750E0,5.888754272E-1,-8.277486877E0,1.564396820E0,8.444578183E0
5.084465750E0,1.169517975E0,-8.489296417E0,1.452579346E0,8.691715176E0
5.094508750E0,1.615440674E0,-9.339528351E0,1.614841919E0,9.614788235E0
5.104551750E0,1.816772003E0,-1.045276337E1,2.525997162E0,1.090603430E1
5.114594750E0,1.777553558E0,-1.133862122E1,3.334915009E0,1.195180680E1
5.124638750E0,1.618733826E0,-1.164248932E1,3.813469849E0,1.235760531E1
5.134681750E0,1.582060089E0,-1.129341522E1,3.616629181E0,1.196345051E1
5.144724750E0,1.094673615E0,-1.058374100E1,2.554737396E0,1.094260330E1
5.154767750E0,7.162605286E-1,-1.002719833E1,1.444496155E0,1.015599846E1
5.164810750E0,8.901988220E-1,-1.014754807E1,7.692503357E-1,1.021552406E1
5.174853750E0,1.129551086E0,-1.077070221E1,7.084767151E-1,1.085291901E1
5.184896750E0,7.270381165E-1,-1.168754562E1,1.618135071E-1,1.171125487E1
5.194939750E0,-3.092568970E-1,-1.229647934E1,2.221380615E-1,1.230237332E1
5.204983750E0,-7.399113464E-1,-1.267085083E1,8.372090149E-1,1.272001763E1
5.215026750E0,-1.080752563E0,-1.366732864E1,1.022823029E0,1.374809315E1
5.225069750E0,-2.318079529E0,-1.468760696E1,2.167492676E-1,1.487098757E1
5.235112750E0,-3.899540863E0,-1.545416290E1,-4.755610657E-1,1.594564920E1
5.245155625E0,-4.695435791E0,-1.539308990E1,-1.076860657E0,1.612928898E1
5.255198625E0,-4.588408356E0,-1.453761887E1,-1.604513397E0,1.532874153E1
5.265241625E0,-3.702251129E0,-1.352961502E1,-2.452050934E0,1.423972260E1
5.275284625E0,-2.630629578E0,-1.258762390E1,-3.196452942E0,1.325087917E1
5.285328625E0,-1.861977997E0,-1.179547119E1,-3.567082214E0,1.246291211E1
5.295371625E0,5.026547241E-1,-1.089464447E1,-2.920726318E0,1.129055278E1
5.305414625E0,3.028053131E0,-9.644294586E0,-6.824308777E-1,1.013149721E1
5.315457625E0,5.450166321E0,-8.434510345E0,1.584006042E0,1.016633429E1
5.325500625E0,7.712561646E0,-7.442223816E0,3.262765045E0,1.120338959E1
5.335543625E0,7.119644623E0,-7.280559998E0,3.001109161E0,1.061614571E1
5.345586625E0,2.880010986E0,-7.756570129E0,1.833836517E0,8.474774323E0
5.355629625E0,1.692829742E0,-7.207511902E0,9.219328308E-1,7.460821704E0
5.365673625E0,5.771997070E-1,-7.132966919E0,3.426374817E-1,7.164480233E0
5.375716625E0,-2.061213684E-1,-7.754324799E0,-4.073030090E-1,7.767749664E0
5.385759625E0,-8.625064087E-1,-8.218060455E0,-4.611909485E-1,8.276057760E0
5.395802625E0,-1.396745453E0,-8.123008118E0,-8.681945801E-3,8.242222644E0
5.405845625E0,-1.570983124E0,-8.062683563E0,2.249821472E-1,8.217388343E0
5.415888625E0,-1.270108795E0,-8.286617889E0,3.210823059E-1,8.389535520E0
5.425931625E0,-8.298742676E-1,-8.669521637E0,2.420466614E-1,8.712513030E0
5.435974625E0,2.035766602E-2,-8.942703552E0,3.638932800E-1,8.950127350E0
5.446018625E0,4.843927002E-1,-8.807534637E0,7.535330200E-1,8.852972082E0
5.456061625E0,1.592687988E-1,-8.417445831E0,9.407936096E-1,8.471354879E0
5.466104625E0,-8.869056702E-1,-8.337212677E0,1.000669098E0,8.443758377E0
5.476147625E0,-1.976789246E0,-8.105793915E0,1.322499847E0,8.447520142E0
5.486190625E0,-2.723885651E0,-7.818990326E0,1.560504913E0,8.425635782E0
5.496233625E0,-2.987637177E0,-7.477849731E0,1.711840210E0,8.232533596E0
5.506276625E0,-2.809956665E0,-7.214846649E0,1.831740875E0,7.956452932E0
5.516319625E0,-2.167492676E0,-7.091353455E0,2.101330261E0,7.707198400E0
5.526363625E0,-1.305285645E0,-7.153773651E0,2.069296875E0,7.560571250E0
5.536406625E0,-3.733236694E-1,-7.287146301E0,2.024989014E0,7.572479930E0
5.546449625E0,8.508306885E-1,-7.436385956E0,2.018702087E0,7.752348487E0
5.556492625E0,1.999092865E0,-7.679181061E0,2.146835632E0,8.220407367E0
5.566535625E0,3.099454651E0,-8.034093018E0,2.078727264E0,8.858576454E0
5.576578625E0,4.208648071E0,-8.444838867E0,1.892514496E0,9.623389902E0
5.586621625E0,5.028493195E0,-9.024283905E0,2.048939209E0,1.053193219E1
5.596664625E0,5.523513794E0,-9.137897644E0,2.740052032E0,1.102353224E1
5.606708625E0,5.494773560E0,-9.182355194E0,3.163371735E0,1.115863361E1
5.616751625E0,4.871020660E0,-9.780211945E0,3.823648682E0,1.157582296E1
5.626794625E0,4.867128754E0,-1.031594788E1,5.475912781E0,1.265279984E1
5.636837625E0,4.794829102E0,-1.062295944E1,7.170688477E0,1.368416701E1
5.646880625E0,4.745132446E0,-1.074510544E1,8.304281158E0,1.438522361E1
5.656923625E0,4.737198944E0,-1.010758118E1,8.854836273E0,1.424824117E1
5.666966625E0,3.890858917E0,-9.629774780E0,7.523055725E0,1.282449659E1
5.677009625E0,1.850002899E0,-9.605525208E0,3.690126343E0,1.045493461E1
5.687053625E0,1.801354065E0,-1.145837219E1,-1.225052490E0,1.166361536E1
5.697096625E0,1.139729919E0,-1.500988678E1,-4.910688171E0,1.583384172E1
5.707139625E0,-5.514532471E-1,-1.865929779E1,-7.054380341E0,1.995589579E1
5.717182625E0,-2.393223267E0,-2.202953934E1,-7.204667816E0,2.330097336E1
5.727225625E0,-2.918630676E0,-2.349334534E1,-5.597759399E0,2.432674640E1
5.737268625E0,-2.316882019E0,-1.919458466E1,-1.112636261E0,1.936589739E1
5.747311625E0,-2.379451904E0,-1.085841980E1,2.297871552E0,1.135109182E1
5.757354625E0,-7.271878052E-1,-7.245083771E0,2.113005981E0,7.581875443E0
5.767398625E0,4.791535950E-1,-6.411467285E0,2.289638672E0,6.824877007E0
5.777441625E0,-4.691244507E-1,-5.977819061E0,2.232158203E0,6.398197303E0
5.787484625E0,-1.513951721E0,-5.927523651E0,2.167642365E0,6.490474549E0
5.797527625E0,-1.936522980E0,-7.288194122E0,2.418520660E0,7.919415193E0
5.807570625E0,-3.449875946E0,-9.451046448E0,2.924318848E0,1.047738344E1
5.817613625E0,-5.347030792E0,-1.181957108E1,2.329605560E0,1.318029062E1
5.827656625E0,-6.177354126E0,-1.351823868E1,2.249522095E0,1.503206009E1
5.837699625E0,-3.889212341E0,-1.428015427E1,8.870553589E-1,1.482685556E1
5.847743625E0,-1.055006104E0,-1.400472702E1,-8.485853577E-1,1.407002182E1
5.857786625E0,4.867877197E-1,-1.245559845E1,-1.251996460E0,1.252782464E1
5.867829625E0,9.973759460E-1,-1.042402313E1,-3.811074829E-1,1.047856192E1
5.877872625E0,8.598120117E-1,-8.595874786E0,1.450633392E0,8.759719018E0
5.887915625E0,9.621990967E-1,-7.272027740E0,2.553689575E0,7.767209602E0
5.897958625E0,4.709207153E-1,-6.171815643E0,2.638563080E0,6.728676674E0
5.908001625E0,-3.872447205E-1,-5.570965118E0,2.143093414E0,5.981509860E0
5.918044625E0,-9.370513916E-1,-5.361251221E0,1.355581055E0,5.608803790E0
5.928088625E0,-9.934840393E-1,-5.459297333E0,8.720864868E-1,5.617069765E0
5.938131625E0,-1.042581940E0,-5.862409058E0,6.822811890E-1,5.993356712E0
5.948174625E0,-1.128054199E0,-6.387517090E0,9.202862549E-1,6.551321061E0
5.958217625E0,-7.464976501E-1,-7.025789795E0,1.332079926E0,7.189813482E0
5.968260625E0,-1.785786438E-1,-7.890391846E0,1.395997009E0,8.014922424E0
5.978303625E0,1.881587219E-1,-8.697214050E0,1.358125763E0,8.804626144E0
5.988346625E0,7.843688965E-2,-9.330696716E0,1.145418091E0,9.401065693E0
5.998389625E0,-1.062789917E-2,-9.698182526E0,8.620573425E-1,9.736426455E0
6.008432625E0,2.728825378E-1,-9.690698090E0,8.186476135E-1,9.729043029E0
6.018476625E0,6.837780762E-1,-9.610914001E0,6.795867920E-1,9.659143782E0
6.028519625E0,1.031504974E0,-9.343270569E0,5.602848816E-1,9.416720585E0
6.038562625E0,1.171763306E0,-9.056916046E0,5.369334412E-1,9.148172224E0
6.048605625E0,1.143771515E0,-8.979227600E0,6.093827820E-1,9.072270330E0
6.058648625E0,1.072220306E0,-8.937913513E0,8.656498718E-1,9.043522768E0
6.068691625E0,1.004561005E0,-8.826994171E0,1.181193695E0,8.962153059E0
6.078734625E0,8.427474976E-1,-8.872349854E0,1.796414337E0,9.091530110E0
6.088777625E0,5.842350769E-1,-9.054371338E0,2.183509369E0,9.332238966E0
6.098821625E0,1.751358032E-1,-9.196575623E0,2.203867035E0,9.458578415E0
6.108864625E0,-6.990463257E-2,-9.339678040E0,2.161654816E0,9.586825548E0
6.118907625E0,-4.655319214E-2,-9.286688232E0,2.039658508E0,9.508151890E0
6.128950625E0,9.160949707E-2,-9.325008545E0,1.699116669E0,9.478985922E0
6.138993625E0,3.426374817E-1,-9.265282745E0,1.608255615E0,9.410066467E0
6.149036625E0,5.516029358E-1,-9.166188812E0,1.609453125E0,9.322747583E0
6.159079625E0,7.863148499E-1,-8.881031799E0,1.942061462E0,9.124835318E0
6.169122625E0,1.091979218E0,-8.632249146E0,2.100132751E0,8.950905066E0
6.179166625E0,1.463356934E0,-8.895551605E0,2.036515045E0,9.242274904E0
6.189209625E0,1.936972046E0,-9.671088867E0,2.270628204E0,1.012114485E1
6.199252625E0,2.157463531E0,-1.041474243E1,2.839595032E0,1.100839719E1
6.209295625E0,1.948348389E0,-1.079375427E1,3.592379608E0,1.154150701E1
6.219338625E0,1.374142456E0,-1.058269318E1,3.898642731E0,1.136138537E1
6.229381625E0,7.601193237E-1,-1.014425491E1,3.402125244E0,1.072651599E1
6.239424750E0,6.942562866E-1,-9.571096802E0,2.679877167E0,9.963414445E0
6.249467750E0,5.673202515E-1,-8.725654907E0,2.165846100E0,9.008318109E0
6.259511750E0,1.347198486E-2,-7.777975616E0,1.516197052E0,7.924388916E0
6.269554750E0,-4.213737488E-1,-7.345674591E0,8.165519714E-1,7.402921596E0
6.279597750E0,-5.060975647E-1,-7.576644287E0,3.314108276E-1,7.600756971E0
6.289640750E0,-9.922865295E-1,-8.229436798E0,-1.657054138E-1,8.290700866E0
6.299683750E0,-1.275198212E0,-9.365574188E0,7.200027466E-2,9.452263982E0
6.309726750E0,-4.617897034E-1,-1.118174744E1,7.827223206E-1,1.121861755E1
6.319769750E0,-3.423381042E-1,-1.340073303E1,8.708889771E-1,1.343336476E1
6.329812750E0,-1.641336823E0,-1.630738861E1,6.899153137E-1,1.640429496E1
6.339856750E0,-3.302282867E0,-1.864896927E1,3.679348755E-1,1.894266357E1
6.349899750E0,-4.268673248E0,-1.960488144E1,-7.788304138E-1,2.007933077E1
6.359942750E0,-4.208648071E0,-1.965158432E1,-2.245031433E0,2.022220688E1
6.369985750E0,-3.195554810E0,-1.799018921E1,-3.361110535E0,1.857836221E1
6.380028750E0,-2.026635590E0,-1.566402649E1,-4.941524048E0,1.654955098E1
6.390071750E0,1.550775146E-1,-1.312814987E1,-5.288352814E0,1.415411755E1
6.400114750E0,2.967578888E0,-1.060724213E1,-3.776197357E0,1.164387292E1
6.410157750E0,6.412365417E0,-8.459358673E0,5.194198608E-2,1.061517204E1
6.420201750E0,9.625284119E0,-7.263345795E0,2.943329315E0,1.241231139E1
6.430244750E0,8.809181213E0,-7.224277039E0,2.276915131E0,1.161792558E1
6.440287750E0,5.518274689E0,-6.471043396E0,2.252366180E0,8.797665121E0
6.450330750E0,3.804338837E0,-6.387367401E0,1.200952606E0,7.530852771E0
6.460373750E0,2.062710571E0,-7.764803009E0,1.235381012E0,8.128536579E0
6.470416750E0,-3.412902832E-1,-8.461604004E0,1.500330048E0,8.600361134E0
6.480459750E0,-2.517315216E0,-8.030201111E0,1.956880646E0,8.640045581E0
6.490502750E0,-3.398981781E0,-7.591313782E0,1.811832275E0,8.512570603E0
6.500546750E0,-3.364104309E0,-7.219636688E0,1.585951996E0,8.121305033E0
6.510589750E0,-2.756966858E0,-7.028933258E0,1.254840546E0,7.653848300E0
6.520632750E0,-1.655257874E0,-7.256909180E0,5.394781494E-1,7.462817574E0
6.530675750E0,-5.489085388E-1,-7.839797058E0,1.805245972E-1,7.861062754E0
6.540718750E0,5.149291992E-2,-8.655151520E0,-9.954299927E-2,8.655877088E0
6.550761750E0,2.519261169E-1,-8.641080780E0,-3.499722290E-1,8.651833585E0
6.560804750E0,-2.143542480E-1,-8.659342804E0,-2.517764282E-1,8.665653865E0
6.570847750E0,-1.112187195E0,-8.634793854E0,5.158273315E-1,8.721393414E0
6.580891750E0,-1.509011993E0,-8.581654358E0,7.210505676E-1,8.743101431E0
6.590934750E0,-1.673968964E0,-8.260572052E0,8.427474976E-1,8.470504475E0
6.600977750E0,-1.820813599E0,-7.848029938E0,1.203347626E0,8.145856712E0
6.611020750E0,-1.536704407E0,-7.538623352E0,1.664837952E0,7.871720770E0
6.621063750E0,-8.243357849E-1,-7.380252686E0,2.134411469E0,7.726795682E0
6.631106750E0,9.430389404E-3,-7.329059143E0,2.471360779E0,7.734521378E0
6.641149750E0,8.836125183E-1,-7.449109497E0,2.695594482E0,7.970961861E0
6.651192750E0,1.887125702E0,-7.489375763E0,2.910547485E0,8.253682778E0
6.661236750E0,2.912792816E0,-7.514822845E0,3.029100952E0,8.610016084E0
6.671279750E0,3.973038025E0,-7.954608307E0,2.971470795E0,9.374991368E0
6.681322750E0,5.022805023E0,-8.156837769E0,3.544329529E0,1.021395342E1
6.691365750E0,5.792205048E0,-8.512498169E0,3.930526428E0,1.102094834E1
6.701408750E0,5.453010406E0,-9.332193604E0,3.382815399E0,1.132557283E1
6.711451750E0,4.925507355E0,-1.015278717E1,3.597319336E0,1.184400340E1
6.721494750E0,4.768783264E0,-1.067624863E1,5.422024841E0,1.288882974E1
6.731537750E0,4.724475403E0,-1.091245743E1,7.109465790E0,1.385449020E1
6.741581750E0,4.280199280E0,-1.062580353E1,8.284073181E0,1.413696131E1
6.751624750E0,4.336781616E0,-1.023376877E1,8.429420929E0,1.394965359E1
6.761667750E0,3.428320770E0,-9.573342133E0,6.983278198E0,1.233565715E1
6.771710750E0,2.413281555E0,-8.651409302E0,3.210074615E0,9.538102002E0
6.781753750E0,2.379900970E0,-9.242380371E0,-1.099763031E0,9.607028795E0
6.791796750E0,1.780397644E0,-1.177795761E1,-4.272265778E0,1.265473651E1
6.801839750E0,1.911524963E-1,-1.495809448E1,-7.047045593E0,1.653608120E1
6.811882750E0,-1.888472900E0,-1.868654114E1,-9.280550995E0,2.094950540E1
6.821926750E0,-3.124901733E0,-2.172626999E1,-7.927664337E0,2.333760228E1
6.831969750E0,-3.694018250E0,-2.182895645E1,-1.816921692E0,2.221374158E1
6.842012750E0,-5.533243561E0,-1.613165405E1,3.186723175E0,1.734941646E1
6.852055750E0,-4.155358887E0,-1.030382309E1,2.630180511E0,1.141725130E1
6.862098750E0,-2.224973145E0,-8.207731934E0,2.668201447E0,8.912725057E0
6.872141750E0,-2.225871277E0,-7.439679108E0,4.149670715E0,8.804720053E0
6.882184750E0,-3.209924927E0,-7.279661865E0,3.708238678E0,8.777706363E0
6.892228750E0,-3.976480865E0,-7.808661804E0,3.587140503E0,9.468641731E0
6.902271750E0,-4.912933502E0,-8.931776276E0,4.186494141E0,1.101999438E1
6.912314750E0,-5.515280914E0,-1.014874557E1,3.899989929E0,1.219119690E1
6.922357750E0,-4.617148590E0,-1.149160309E1,2.244732056E0,1.258625539E1
6.932400750E0,-2.093097382E0,-1.277877640E1,4.414320374E-1,1.295658308E1
6.942443750E0,6.815327454E-1,-1.352213058E1,-6.604266357E-1,1.355539250E1
6.952486750E0,2.232756958E0,-1.337902817E1,-4.017645264E-1,1.357000417E1
6.962529750E0,2.455793152E0,-1.216984268E1,-9.894424438E-2,1.241554594E1
6.972573750E0,1.682052155E0,-1.010533585E1,1.210682373E0,1.031566109E1
6.982616750E0,1.451980591E0,-8.224497070E0,1.849703522E0,8.554063526E0
6.992659750E0,8.942404175E-1,-6.872508545E0,1.489402771E0,7.088678314E0
7.002702750E0,2.612068176E-1,-5.995182953E0,9.098080444E-1,6.069447942E0
7.012745750E0,1.390608215E-1,-5.594466248E0,4.236190796E-1,5.612204881E0
7.022788750E0,2.550695801E-1,-5.446873169E0,2.055226135E-1,5.456713970E0
7.032831750E0,2.380050659E-1,-5.717210999E0,4.637356567E-1,5.740923164E0
7.042874750E0,4.658312988E-1,-6.310726776E0,1.128203888E0,6.427683506E0
7.052917750E0,7.441026306E-1,-7.157366180E0,1.337917786E0,7.319262488E0
7.062961750E0,7.939489746E-1,-7.929909668E0,1.491648102E0,8.107948962E0
7.073004750E0,6.499484253E-1,-8.572074280E0,1.371597748E0,8.705410432E0
7.083047750E0,4.815486145E-1,-8.936716003E0,1.235979767E0,9.034623843E0
7.093090750E0,2.884501648E-1,-8.884474640E0,1.105002136E0,8.957573491E0
7.103133750E0,4.963677979E-1,-8.677455139E0,9.566606140E-1,8.744129929E0
7.113176750E0,9.541159058E-1,-8.562793579E0,6.532415771E-1,8.640514776E0
7.123219750E0,1.305285645E0,-8.605155487E0,5.640270996E-1,8.721846028E0
7.133262750E0,1.319356384E0,-8.651558990E0,5.501060486E-1,8.768853454E0
7.143306750E0,1.275198212E0,-8.897796936E0,6.307882690E-1,9.010816535E0
7.153349750E0,1.041234741E0,-9.156459045E0,8.972341919E-1,9.259046454E0
7.163392750E0,6.837780762E-1,-9.335337067E0,1.324595490E0,9.453603748E0
7.173435750E0,2.959346008E-1,-9.524094543E0,1.529070282E0,9.650596359E0
7.183478750E0,7.334747314E-3,-9.629774780E0,1.658551025E0,9.771561166E0
7.193521750E0,-1.597178650E-1,-9.674232330E0,1.756746826E0,9.833739898E0
7.203564750E0,-4.001179504E-1,-9.647887115E0,1.679058380E0,9.801074289E0
7.213607750E0,-3.857478333E-1,-9.318571930E0,1.701511688E0,9.480491877E0
7.223651750E0,-2.854563904E-1,-9.040599976E0,1.679806824E0,9.199765445E0
7.233694750E0,-1.818717957E-1,-8.776100006E0,1.733545074E0,8.947524082E0
7.243738042E0,-1.769320679E-1,-8.521778870E0,1.847907257E0,8.721627216E0
7.253781042E0,1.945953369E-3,-8.403075714E0,1.994751892E0,8.636591941E0
7.263824042E0,3.550616455E-1,-8.402926025E0,2.204914856E0,8.694646864E0
7.273867042E0,8.228388977E-1,-8.792116699E0,2.670147400E0,9.225403354E0
7.283910042E0,1.162632294E0,-9.456135864E0,3.183430023E0,1.004512051E1
7.293953042E0,1.116378479E0,-1.031235535E1,3.567531281E0,1.096896773E1
7.303997042E0,9.150471497E-1,-1.080722626E1,3.909869385E0,1.152911659E1
7.314040042E0,9.556127930E-1,-1.074779984E1,4.096830597E0,1.154176841E1
7.324083042E0,6.806346130E-1,-1.055649765E1,3.605402527E0,1.117594889E1
7.334126042E0,8.681945801E-1,-9.977501678E0,3.086880798E0,1.048013047E1
7.344169042E0,1.308578796E0,-9.110354919E0,2.724634094E0,9.598675751E0
7.354212042E0,1.585652618E0,-8.392298126E0,2.007625122E0,8.773569439E0
7.364255042E0,1.168470154E0,-8.268804932E0,1.125808868E0,8.426500051E0
7.374298042E0,4.942721558E-1,-8.565188599E0,3.893403625E-1,8.588267963E0
7.384342042E0,1.252894592E-1,-8.977431335E0,-4.001179504E-1,8.987216766E0
7.394385042E0,1.832189941E-1,-9.826615448E0,-8.283773804E-1,9.863171369E0
7.404428042E0,7.798782349E-1,-1.131916168E1,-2.308200073E-1,1.134834389E1
7.414471042E0,4.888833618E-1,-1.314611252E1,3.577560425E-1,1.316006348E1
7.424514042E0,-1.260229340E0,-1.523606644E1,5.848338318E-1,1.529927871E1
7.434557042E0,-3.739972687E0,-1.745340546E1,-2.544708252E-2,1.784963320E1
7.444600042E0,-5.078638916E0,-1.904265060E1,-1.037642212E0,1.973554703E1
7.454643042E0,-4.768184509E0,-1.961520996E1,-2.725232849E0,2.036955914E1
7.464687042E0,-3.618874512E0,-1.848012039E1,-4.329895935E0,1.932250246E1
7.474730042E0,-1.992057495E0,-1.646022079E1,-4.656516724E0,1.722179752E1
7.484773042E0,-1.023870850E-1,-1.398077682E1,-4.372557220E0,1.464895424E1
7.494816042E0,1.604513397E0,-1.150477570E1,-4.191284180E0,1.234913722E1
7.504859042E0,3.722010040E0,-9.740394745E0,-2.417622528E0,1.070390336E1
7.514902042E0,5.161117401E0,-8.216563568E0,2.007325745E-1,9.705119436E0
7.524945042E0,6.562802582E0,-7.078031158E0,3.166814575E0,1.015862281E1
7.534988042E0,6.023174744E0,-5.961203613E0,4.584366760E0,9.634884592E0
7.545032042E0,3.421285400E0,-6.112089844E0,4.357588348E0,8.249327989E0
7.555075042E0,1.486408997E0,-6.640940094E0,2.893782349E0,7.394962699E0
7.565118042E0,1.817221069E-1,-6.920558624E0,1.173110504E0,7.021633916E0
7.575161042E0,-1.207538910E0,-6.622827759E0,5.192701721E-1,6.752010016E0
7.585204042E0,-1.506167908E0,-6.618187408E0,4.252656555E-1,6.800720345E0
7.595247042E0,-1.523980865E0,-6.598727875E0,5.583389282E-1,6.795400621E0
7.605290042E0,-1.403032379E0,-7.007827148E0,9.773176575E-1,7.213410497E0
7.615334042E0,-1.555116119E0,-7.645501099E0,1.103654938E0,7.879728892E0
7.625377042E0,-1.028211823E0,-7.829917603E0,6.280938721E-1,7.922078712E0
7.635420042E0,-2.553689575E-1,-7.955207062E0,7.927514648E-1,7.998686616E0
7.645463042E0,2.868035889E-1,-8.264014893E0,8.961863708E-1,8.317412365E0
7.655506042E0,1.971400452E-1,-8.400830383E0,7.309300232E-1,8.434872496E0
7.665549042E0,-3.640429688E-1,-8.753646698E0,7.849676514E-1,8.796307862E0
7.675592042E0,-8.406518555E-1,-8.561296692E0,8.569679260E-1,8.645050064E0
7.685635042E0,-1.237776031E0,-8.447084198E0,9.265731812E-1,8.587424457E0
7.695679042E0,-1.368154907E0,-8.234077148E0,1.232237549E0,8.437433479E0
7.705722042E0,-1.311273193E0,-7.889493713E0,1.484163666E0,8.134266422E0
7.715765042E0,-9.533674622E-1,-7.658224640E0,1.634900208E0,7.888612859E0
7.725808042E0,-3.412902832E-1,-7.514673157E0,1.869911499E0,7.751345736E0
7.735851042E0,4.352947998E-1,-7.334897003E0,2.143991547E0,7.654207690E0
7.745894042E0,1.392254791E0,-7.287146301E0,2.303709412E0,7.768394408E0
7.755937042E0,2.567161560E0,-7.210505676E0,2.635120239E0,8.094786548E0
7.765980042E0,3.750151520E0,-7.056925049E0,3.010838928E0,8.539846522E0
7.776024042E0,4.755311279E0,-7.587272186E0,2.926414490E0,9.420381434E0
7.786067042E0,5.562732239E0,-7.963889008E0,3.340902557E0,1.027273810E1
7.796110042E0,5.934708710E0,-8.422684937E0,3.560495911E0,1.090135405E1
7.806153042E0,5.472919006E0,-9.397906952E0,2.931503906E0,1.126353464E1
7.816196042E0,5.008285217E0,-1.052341644E1,3.115471344E0,1.206363859E1
7.826239042E0,4.745132446E0,-1.148396896E1,4.479734344E0,1.320855196E1
7.836282042E0,4.479135590E0,-1.199889816E1,6.125412140E0,1.419707317E1
7.846325042E0,3.935615845E0,-1.205458237E1,7.399263153E0,1.468165942E1
7.856369042E0,3.215613098E0,-1.200443665E1,6.578519897E0,1.406142208E1
7.866412042E0,1.944007416E0,-1.209903992E1,3.780388641E0,1.282408944E1
7.876455042E0,1.327439575E0,-1.286664368E1,4.370910645E-1,1.294232065E1
7.886498042E0,5.876779175E-1,-1.506527161E1,-2.527344360E0,1.528709402E1
7.896541042E0,-1.041384430E0,-1.818238953E1,-4.971910858E0,1.887865641E1
7.906584042E0,-2.805915070E0,-2.069296875E1,-5.436844025E0,2.157849365E1
7.916627042E0,-3.588787079E0,-2.091196335E1,-4.248315582E0,2.163880286E1
7.926670042E0,-3.318898315E0,-1.691108322E1,-2.198927307E0,1.737340217E1
7.936714042E0,-1.454225922E0,-1.050919601E1,1.490899658E0,1.071357810E1
7.946757042E0,-3.418890381E-1,-6.782845001E0,3.210373993E0,7.512015415E0
7.956800042E0,1.370100861E0,-5.361700287E0,2.693349152E0,6.154602829E0
7.966843042E0,1.561403046E0,-5.514532471E0,1.924248505E0,6.045724121E0
7.976886042E0,6.330335999E-1,-5.810766449E0,2.155218201E0,6.229823734E0
7.986929042E0,-1.092727661E-1,-6.853498077E0,2.667602692E0,7.355166929E0
7.996972042E0,-1.154848480E0,-8.799900513E0,2.695295105E0,9.275588377E0
8.007016042E0,-3.241359558E0,-1.110495712E1,2.602039032E0,1.185736445E1
8.017059042E0,-5.069956970E0,-1.296992889E1,1.835632782E0,1.404610504E1
8.027102042E0,-4.412524109E0,-1.360535751E1,1.842368774E0,1.442118042E1
8.037145042E0,-2.167193298E0,-1.352587280E1,8.243357849E-1,1.372317352E1
8.047188042E0,-4.945715332E-1,-1.276575348E1,-8.425978088E-1,1.280308689E1
8.057231042E0,-2.101629639E-1,-1.128443390E1,-9.951306152E-1,1.133017660E1
8.067274042E0,-3.125500488E-1,-1.002330643E1,2.378553772E-1,1.003099868E1
8.077317042E0,9.505233765E-2,-8.938811646E0,1.807790680E0,9.120279367E0
8.087361042E0,3.403921509E-1,-7.901618500E0,2.713257751E0,8.361411924E0
8.097404042E0,5.822891235E-2,-6.983876953E0,2.690804443E0,7.484541165E0
8.107447042E0,-4.014651489E-1,-6.243067474E0,1.815873871E0,6.514174059E0
8.117490042E0,-5.828878784E-1,-6.033802643E0,8.575666809E-1,6.122250667E0
8.127533042E0,-5.989045715E-1,-6.188431091E0,2.902464294E-1,6.224115122E0
8.137576042E0,-6.565347290E-1,-6.513554993E0,2.993774414E-1,6.553400899E0
8.147619042E0,-3.118016052E-1,-6.806346130E0,6.857240295E-1,6.847903718E0
8.157662042E0,2.731819153E-1,-7.171287231E0,1.028511200E0,7.249815460E0
8.167706042E0,6.686595154E-1,-7.774682465E0,8.619076538E-1,7.850839304E0
8.177749042E0,8.351133728E-1,-8.294850769E0,6.313870239E-1,8.360658658E0
8.187792042E0,9.309141541E-1,-8.683292999E0,1.113235016E0,8.803719139E0
8.197835042E0,1.099763031E0,-8.961564331E0,1.005608826E0,9.084622342E0
8.207878042E0,1.188827820E0,-9.038354645E0,8.945397949E-1,9.159987321E0
8.217921042E0,1.222807159E0,-8.982371063E0,7.803273010E-1,9.098744856E0
8.227964042E0,1.169068909E0,-8.876690826E0,8.255332947E-1,8.991321781E0
8.238007042E0,1.003513184E0,-8.803193665E0,1.030906219E0,8.919978982E0
8.248051042E0,7.390132141E-1,-8.730594635E0,1.309327240E0,8.859106108E0
8.258094042E0,3.414399719E-1,-8.751401367E0,1.410816193E0,8.870964405E0
8.268137042E0,5.942642212E-2,-8.890312500E0,1.727856903E0,9.056858027E0
8.278180042E0,-3.420387268E-1,-8.817114716E0,2.080074463E0,9.065606001E0
8.288223042E0,-4.828958130E-1,-8.809929657E0,2.371668091E0,9.136348202E0
8.298266042E0,-2.561174011E-1,-8.784183197E0,2.595303040E0,9.163136386E0
8.308309042E0,1.519340515E-1,-8.890462189E0,2.441273346E0,9.220803514E0
8.318352042E0,7.616162109E-1,-9.038953400E0,2.173929291E0,9.327845752E0
8.328396042E0,1.272952881E0,-9.020541687E0,1.893262939E0,9.304570163E0
8.338439042E0,1.590592346E0,-9.006021881E0,1.906285858E0,9.341966597E0
8.348482042E0,1.795366516E0,-9.081015930E0,1.878593445E0,9.445491230E0
8.358525042E0,1.668280792E0,-9.112300873E0,1.681303711E0,9.415092680E0
8.368568042E0,1.367256775E0,-9.425299988E0,1.910626831E0,9.713710199E0
8.378611042E0,1.274599457E0,-1.001612137E1,2.722837830E0,1.045758753E1
8.388654042E0,1.243763580E0,-1.062909668E1,3.479514313E0,1.125307353E1
8.398697042E0,9.439370728E-1,-1.095661560E1,4.066294098E0,1.172489617E1
8.408741042E0,1.154998169E0,-1.089883575E1,4.284839630E0,1.176768848E1
8.418784042E0,1.511407013E0,-1.040396484E1,3.982019348E0,1.124203334E1
8.428827042E0,1.121617584E0,-9.525441742E0,3.138972473E0,1.009183901E1
8.438870042E0,7.206015015E-1,-8.930279388E0,2.123933258E0,9.207619071E0
8.448913042E0,5.340893555E-1,-8.945996704E0,1.290167084E0,9.054316074E0
8.458956042E0,2.168989563E-1,-9.323661346E0,4.656816101E-1,9.337803030E0
8.468999042E0,-1.634600830E-1,-9.902657318E0,-1.134640503E-1,9.904656241E0
8.479042042E0,-9.235794067E-2,-1.081860260E1,4.569996643E-1,1.082864446E1
8.489086042E0,-5.254074097E-2,-1.232342331E1,8.213420105E-1,1.235087549E1
8.499129042E0,-8.104147339E-1,-1.407972107E1,7.246430969E-1,1.412162969E1
8.509172042E0,-2.649789734E0,-1.630649048E1,4.456233215E-1,1.652639094E1
8.519215042E0,-4.559668121E0,-1.793719940E1,-1.721420288E-2,1.850767387E1
8.529258042E0,-4.820874939E0,-1.844599136E1,-1.438209229E0,1.911972485E1
8.539301042E0,-3.719764709E0,-1.766057465E1,-2.618055725E0,1.823696143E1
8.549344042E0,-2.227966919E0,-1.589843903E1,-3.472928009E0,1.642514624E1
8.559387042E0,-9.530680847E-1,-1.392569138E1,-4.558769989E0,1.468385518E1
8.569431042E0,1.374890900E0,-1.180235687E1,-4.819078674E0,1.282222570E1
8.579474042E0,3.592529297E0,-9.848320312E0,-3.587589569E0,1.108000355E1
8.589517042E0,5.570965118E0,-8.144862671E0,-5.522016907E-1,9.883287256E0
8.599560042E0,8.426726532E0,-7.370223541E0,2.345472565E0,1.143814481E1
8.609603042E0,8.037535858E0,-7.098688202E0,2.672392731E0,1.105147229E1
8.619646042E0,4.777465210E0,-6.848857727E0,2.404449921E0,8.689787421E0
8.629689042E0,1.971400452E0,-7.155869293E0,2.109413452E0,7.716379345E0
8.639732042E0,2.712359619E-1,-7.038812714E0,1.520987091E0,7.206376003E0
8.649776042E0,-3.830534363E-1,-7.065307617E0,1.515448608E0,7.236151335E0
8.659819042E0,-9.975256348E-1,-7.442523193E0,1.260828094E0,7.614190460E0
8.669862042E0,-1.960772552E0,-7.505093079E0,1.313817902E0,7.867475364E0
8.679905042E0,-2.336790619E0,-7.187902679E0,1.792073364E0,7.767757866E0
8.689948042E0,-1.868564301E0,-7.270979919E0,1.708097992E0,7.699109058E0
8.699991042E0,-1.157542877E0,-7.793243866E0,9.436376953E-1,7.935049311E0
8.710034042E0,-3.679348755E-1,-8.005053406E0,1.240919495E-1,8.014465354E0
8.720077042E0,2.655477905E-1,-8.590785370E0,1.513352966E-1,8.596220755E0
8.730121042E0,2.231858826E-1,-9.103768616E0,1.553768921E-1,9.107829430E0
8.740164042E0,-3.122506714E-1,-8.805438995E0,3.611988831E-1,8.818374057E0
8.750207042E0,-1.122964783E0,-8.645571442E0,6.688092041E-1,8.743812739E0
8.760250042E0,-1.586999817E0,-8.464448090E0,6.956034851E-1,8.639983454E0
8.770293042E0,-1.703307953E0,-8.054600372E0,9.214837646E-1,8.284140116E0
8.780336042E0,-1.586550751E0,-7.681576080E0,1.361119537E0,7.960929642E0
8.790379042E0,-1.208137665E0,-7.409142609E0,1.698517914E0,7.696749568E0
8.800423042E0,-6.265969849E-1,-7.306156769E0,1.827998657E0,7.557389073E0
8.810466042E0,7.229965210E-2,-7.308102722E0,2.003284149E0,7.578043284E0
8.820509042E0,1.028211823E0,-7.334148560E0,2.339934082E0,7.766739738E0
8.830552042E0,2.152224426E0,-7.420219574E0,2.632126465E0,8.162096436E0
8.840595042E0,3.207679596E0,-7.560178528E0,2.577340393E0,8.607449754E0
8.850638042E0,4.233646088E0,-7.543862457E0,2.537523193E0,9.015134160E0
8.860681042E0,4.992717590E0,-7.883057098E0,2.300565948E0,9.610537021E0
8.870724042E0,5.542374573E0,-7.974217529E0,3.036435699E0,1.017477287E1
8.880768042E0,5.220843201E0,-8.598718872E0,3.380719757E0,1.061246607E1
8.890811042E0,4.251309357E0,-9.898466034E0,3.587888947E0,1.135456772E1
8.900854042E0,4.161196747E0,-1.080557968E1,4.642895050E0,1.247527896E1
8.910897042E0,4.069138184E0,-1.156450150E1,5.889353027E0,1.360073746E1
8.920940042E0,3.604953461E0,-1.189366699E1,7.247927856E0,1.438705884E1
8.930983042E0,3.643124084E0,-1.132604736E1,8.562045135E0,1.465811444E1
8.941026042E0,3.600612488E0,-1.075333832E1,8.148904266E0,1.396435949E1
8.951069042E0,3.179687805E0,-1.026161087E1,5.023403778E0,1.185941220E1
8.961113042E0,2.792143707E0,-1.073702225E1,1.033899994E0,1.114220187E1
8.971156042E0,2.230511627E0,-1.312021637E1,-2.387385406E0,1.352090488E1
8.981199042E0,5.306465149E-1,-1.626861923E1,-5.397176514E0,1.714873382E1
8.991242042E0,-1.448088684E0,-2.049313431E1,-8.140222321E0,2.209816133E1
9.001285042E0,-2.787353668E0,-2.377715515E1,-7.666457520E0,2.513756190E1
9.011328042E0,-2.712359619E0,-2.058848602E1,-4.033811646E0,2.115453350E1
9.021371042E0,-2.837649078E0,-1.226968506E1,6.222560120E-1,1.260891059E1
9.031414042E0,-2.358944550E0,-7.318580933E0,2.778971100E0,8.176119289E0
9.041458042E0,-2.398013306E-1,-4.981341248E0,3.142115936E0,5.894417517E0
9.051501042E0,8.807684326E-1,-4.093537445E0,3.607348480E0,5.526822315E0
9.061544042E0,-2.652484131E-1,-4.270469513E0,3.873944092E0,5.771889587E0
9.071587042E0,-1.627565460E0,-5.157075806E0,2.903961182E0,6.138191162E0
9.081630042E0,-2.430046692E0,-7.078180847E0,3.353027344E0,8.200522142E0
9.091673042E0,-4.411027222E0,-9.705068207E0,3.060236206E0,1.109101238E1
9.101716042E0,-6.026467896E0,-1.251861740E1,1.954036560E0,1.403040826E1
9.111759042E0,-4.442461853E0,-1.504790771E1,6.953041077E-1,1.570536347E1
9.121803042E0,-9.705816650E-1,-1.630828674E1,-5.831872559E-1,1.634754883E1
9.131846042E0,1.179846497E0,-1.602627319E1,-1.075513458E0,1.610559528E1
9.141889042E0,1.316212921E0,-1.379216904E1,-1.246457977E0,1.391078721E1
9.151932042E0,5.984555054E-1,-1.139999359E1,-6.334826660E-1,1.143325427E1
9.161975042E0,-3.712280273E-2,-9.237290955E0,1.481169891E0,9.355361379E0
9.172018042E0,2.299218750E-1,-7.458988953E0,2.459535370E0,7.857397438E0
9.182061042E0,-2.595602417E-1,-6.243516541E0,2.219284973E0,6.631296714E0
9.192105042E0,-6.541397095E-1,-5.575156403E0,1.734293518E0,5.875205671E0
9.202148042E0,-8.249345398E-1,-5.601351929E0,9.547146606E-1,5.741701882E0
9.212191042E0,-1.288819885E0,-6.120622101E0,4.837939453E-1,6.273525977E0
9.222234042E0,-1.382824402E0,-6.858437805E0,3.643423462E-1,7.005934470E0
9.232277042E0,-1.012644196E0,-7.462731171E0,7.077282715E-1,7.564303279E0
9.242320125E0,-4.317022705E-1,-7.909552002E0,1.260528717E0,8.020991982E0
9.252363125E0,3.951782227E-2,-8.277486877E0,1.454824677E0,8.404455099E0
9.262406125E0,3.972738647E-1,-8.501870270E0,1.545685730E0,8.650362361E0
9.272450125E0,5.125341797E-1,-8.625962219E0,1.365759888E0,8.748440750E0
9.282493125E0,7.747888184E-1,-8.714428253E0,9.882449341E-1,8.804441240E0
9.292536125E0,1.042132874E0,-8.691076813E0,6.060896301E-1,8.774292093E0
9.302579125E0,1.325343933E0,-8.670569458E0,2.601589966E-1,8.775134983E0
9.312622125E0,1.387614441E0,-8.614436188E0,1.151106262E-1,8.726238315E0
9.322665125E0,1.262324982E0,-8.646020508E0,7.574249268E-2,8.738013041E0
9.332708125E0,9.464817810E-1,-8.667425995E0,2.865042114E-1,8.723656676E0
9.342751125E0,7.357200623E-1,-8.650511169E0,6.638694763E-1,8.707086205E0
9.352795125E0,4.547543335E-1,-8.753796387E0,1.376088409E0,8.872957342E0
9.362838125E0,2.043251038E-1,-8.858279114E0,2.102976837E0,9.106776004E0
9.372881125E0,1.969903564E-1,-9.094487915E0,2.631827087E0,9.469690040E0
9.382924125E0,3.754193115E-1,-9.311835938E0,2.777474213E0,9.724484109E0
9.392967125E0,8.214916992E-1,-9.539362793E0,2.602637787E0,9.922097286E0
9.403010125E0,1.189426575E0,-9.640402679E0,2.281256104E0,9.977786769E0
9.413053125E0,1.457668762E0,-9.530531158E0,1.993704071E0,9.845337897E0
9.423096125E0,1.820514221E0,-9.112151184E0,1.793869629E0,9.463801534E0
9.433140125E0,1.991608429E0,-8.810528412E0,1.463506622E0,9.150615644E0
9.443183125E0,1.906884613E0,-8.848699036E0,1.234632568E0,9.135644538E0
9.453226125E0,1.728305969E0,-9.279503174E0,1.687590637E0,9.588752934E0
9.463269125E0,1.576072540E0,-9.989327087E0,2.782264252E0,1.048864408E1
9.473312125E0,1.594633942E0,-1.035756134E1,3.929777985E0,1.119218876E1
9.483355125E0,1.460213470E0,-1.039333694E1,4.434079285E0,1.139362696E1
9.493398125E0,1.560953979E0,-1.030382309E1,4.092789001E0,1.119626140E1
9.503441125E0,1.300046539E0,-9.989925842E0,3.155887299E0,1.055691072E1
9.513485125E0,3.704795837E-1,-9.348359985E0,1.928589478E0,9.552410529E0
9.523528125E0,-1.466949463E-2,-8.920998688E0,1.129700775E0,8.992255369E0
9.533571125E0,2.457888794E-1,-9.151369629E0,8.547225952E-1,9.194483616E0
9.543614125E0,3.725752258E-1,-9.794282684E0,9.213340759E-1,9.844574246E0
9.553657125E0,-8.098159790E-2,-1.091230774E1,2.986289978E-1,1.091669352E1
9.563700125E0,-3.290158081E-1,-1.223390945E1,7.228468323E-1,1.225966148E1
9.573743125E0,-2.896476746E-1,-1.343097015E1,1.026864624E0,1.347328119E1
9.583786125E0,-8.455915833E-1,-1.462473770E1,4.818479919E-1,1.465708550E1
9.593830125E0,-2.700234833E0,-1.584200638E1,3.242257690E-1,1.607375366E1
9.603873125E0,-4.504133606E0,-1.685060898E1,-3.586541748E-1,1.744588419E1
9.613916125E0,-4.826114044E0,-1.678145279E1,-1.623823242E0,1.753697056E1
9.623959125E0,-3.888014832E0,-1.582913315E1,-2.767445068E0,1.653290258E1
9.634002125E0,-2.461631012E0,-1.446606766E1,-3.480562134E0,1.508114894E1
9.644045125E0,-1.272952881E0,-1.321002960E1,-4.011657715E0,1.386429547E1
9.654088125E0,2.966830444E-1,-1.192315567E1,-4.006568298E0,1.258182226E1
9.664131125E0,2.729573822E0,-1.032567764E1,-2.253264313E0,1.091546573E1
9.674175125E0,4.777764587E0,-8.847651215E0,6.915618896E-2,1.005548353E1
9.684218125E0,7.100185089E0,-7.733667755E0,2.638563080E0,1.082516791E1
9.694261125E0,7.904163208E0,-7.158863068E0,3.796105957E0,1.131969685E1
9.704304125E0,4.892725525E0,-7.078629913E0,1.441203003E0,8.724839861E0
9.714347125E0,2.471959534E0,-6.722071381E0,4.628375244E-1,7.177119628E0
9.724390125E0,1.709445190E0,-6.929689636E0,6.643185425E-1,7.168271789E0
9.734433125E0,4.725672913E-1,-7.742349701E0,9.325607300E-2,7.757318830E0
9.744476125E0,-8.216413879E-1,-7.789351959E0,-1.649569702E-1,7.834303372E0
9.754520125E0,-1.538500671E0,-7.590565338E0,3.878434753E-1,7.754617272E0
9.764563125E0,-1.612147522E0,-7.557783508E0,6.463558960E-1,7.754797685E0
9.774606125E0,-1.278191986E0,-7.937094727E0,4.052073669E-1,8.049561507E0
9.784649125E0,-7.423063660E-1,-8.007747803E0,3.062631226E-1,8.047909090E0
9.794692125E0,-9.295669556E-2,-7.936945038E0,3.769161987E-1,7.946433370E0
9.804735125E0,-1.369651794E-1,-8.483308868E0,7.114704895E-1,8.514192802E0
9.814778125E0,-3.044668579E-1,-8.295898590E0,9.915380859E-1,8.360489296E0
9.824822125E0,-8.113128662E-1,-8.045619049E0,9.620494080E-1,8.143448503E0
9.834865125E0,-1.401385803E0,-8.000113678E0,1.041683807E0,8.188455665E0
9.844908125E0,-1.959275665E0,-7.848029938E0,1.187630310E0,8.175622349E0
9.854951125E0,-2.202519836E0,-7.550897827E0,1.395997009E0,7.988489174E0
9.864994125E0,-2.041604462E0,-7.294181671E0,1.602268066E0,7.742124901E0
9.875037125E0,-1.410067749E0,-7.225025482E0,1.685794373E0,7.551899558E0
9.885080125E0,-5.842350769E-1,-7.169341278E0,1.850451965E0,7.427311591E0
9.895123125E0,3.516188049E-1,-7.287595367E0,2.005679169E0,7.566731854E0
9.905167125E0,1.257235565E0,-7.497009888E0,2.420616302E0,7.977793041E0
9.915210125E0,2.388433228E0,-7.655380554E0,2.717449036E0,8.467230596E0
9.925253125E0,3.446133728E0,-7.652985535E0,2.678380280E0,8.810093427E0
9.935296125E0,4.330794067E0,-8.027806091E0,2.002835083E0,9.338779163E0
9.945339125E0,4.861141205E0,-8.499924316E0,1.515598297E0,9.908402767E0
9.955382125E0,5.126389618E0,-8.627608795E0,1.954036560E0,1.022417541E1
9.965425125E0,5.086273041E0,-9.018595734E0,2.568508759E0,1.066782451E1
9.975469125E0,4.498445435E0,-9.783205719E0,3.232976990E0,1.124274280E1
9.985512125E0,4.223317566E0,-1.073537567E1,4.527634735E0,1.239290839E1
9.995555125E0,4.452640686E0,-1.134341125E1,6.445296936E0,1.378553012E1
1.000559813E1,4.638853455E0,-1.141900406E1,8.671766968E0,1.507024079E1
1.001564113E1,4.845423889E0,-1.064975372E1,9.592352600E0,1.512972622E1
1.002568412E1,3.853287048E0,-1.017374359E1,7.986042938E0,1.349554599E1
1.003572713E1,2.298021240E0,-1.057296341E1,4.059857483E0,1.155642244E1
1.004577012E1,1.573976898E0,-1.195653625E1,-2.691403198E-1,1.206269452E1
1.005581413E1,1.014590149E0,-1.499491791E1,-4.521796875E0,1.569469984E1
1.006585713E1,-7.705975342E-1,-1.924802353E1,-8.063432007E0,2.088298748E1
1.007590012E1,-2.826721802E0,-2.312391357E1,-8.460855560E0,2.478491097E1
1.008594313E1,-4.109254761E0,-2.411784668E1,-5.772595825E0,2.513721078E1
1.009598613E1,-3.298989716E0,-1.863444946E1,-1.235530701E0,1.896450833E1
1.010602913E1,-2.025737457E0,-1.037657181E1,2.399959259E0,1.084143252E1
1.011607213E1,-8.036787415E-1,-6.358178101E0,3.278482361E0,7.198664798E0
1.012611513E1,1.149609375E-1,-5.339246979E0,3.246748352E0,6.249971934E0
1.013615913E1,-3.333567810E-1,-5.146896973E0,3.122207336E0,6.029083997E0
1.014620213E1,-1.035247192E0,-4.853806458E0,2.948568420E0,5.772800846E0
1.015624513E1,-1.336570587E0,-5.915847931E0,3.197201385E0,6.856075727E0
1.016628813E1,-2.275717621E0,-7.915389862E0,3.589385834E0,8.984207145E0
1.017633112E1,-3.719165955E0,-1.079959213E1,2.420915680E0,1.167579626E1
1.018637413E1,-3.360661469E0,-1.346225510E1,9.839039612E-1,1.391022735E1
1.019641713E1,-1.131197662E0,-1.482576965E1,4.912783813E-1,1.487697578E1
1.020646112E1,8.005352783E-1,-1.502620285E1,-1.071920929E0,1.508564362E1
1.021650413E1,1.464404755E0,-1.364921631E1,-1.438209229E0,1.380268209E1
1.022654712E1,9.339079285E-1,-1.133502869E1,-9.211843872E-1,1.141068096E1
1.023659013E1,3.351530457E-1,-9.580227814E0,2.561174011E-1,9.589509302E0
1.024663267E1,2.198927307E-1,-8.265362091E0,2.318528595E0,8.587207821E0
1.025667567E1,1.056802368E-1,-7.135661316E0,2.990181885E0,7.737571869E0
1.026671867E1,-5.065466309E-1,-6.130651245E0,2.586770782E0,6.673294333E0
1.027676167E1,-9.497749329E-1,-5.421875153E0,1.912572784E0,5.827240964E0
1.028680567E1,-1.083446960E0,-5.376519470E0,1.216520233E0,5.617894660E0
1.029684867E1,-1.193168793E0,-5.838608551E0,7.978408813E-1,6.012449721E0
1.030689167E1,-1.275048523E0,-6.753356323E0,7.250921631E-1,6.910812471E0
1.031693467E1,-9.041198730E-1,-7.534581757E0,1.091230774E0,7.666690263E0
1.032697767E1,-1.299298096E-1,-8.098908234E0,1.489702148E0,8.235800436E0
1.033702067E1,3.486250305E-1,-8.362959137E0,1.577270050E0,8.517535192E0
1.034706367E1,6.012995911E-1,-8.667126617E0,1.326691132E0,8.788671934E0
1.035710667E1,6.474037170E-1,-8.837322693E0,1.154399414E0,8.935885069E0
1.036715067E1,6.686595154E-1,-8.997339935E0,1.016985168E0,9.079289085E0
1.037719367E1,1.021475830E0,-9.018595734E0,9.288185120E-1,9.123660762E0
1.038723667E1,1.269959106E0,-8.938212891E0,6.827302551E-1,9.053759794E0
1.039727967E1,1.432670746E0,-8.890462189E0,4.987628174E-1,9.018959349E0
1.040732267E1,1.560804291E0,-8.992100830E0,4.040098572E-1,9.135491850E0
1.041736567E1,1.529519348E0,-9.127269745E0,4.430786133E-1,9.265139022E0
1.042740867E1,1.238524475E0,-9.156459045E0,6.730004883E-1,9.264319445E0
1.043745267E1,9.839039612E-1,-9.020541687E0,1.112636261E0,9.142001902E0
1.044749567E1,6.189628601E-1,-8.902137909E0,1.584155731E0,9.063151977E0
1.045753867E1,3.085084534E-1,-8.876690826E0,1.861678619E0,9.075057288E0
1.046758167E1,2.016307068E-1,-8.905730438E0,2.125879211E0,9.158168594E0
1.047762467E1,1.408570862E-1,-8.959019623E0,2.138303375E0,9.211743301E0
1.048766767E1,1.133143616E-1,-8.884923706E0,2.012864227E0,9.110781075E0
1.049771067E1,9.145980835E-2,-8.818162537E0,1.782343597E0,8.996949712E0
1.050775367E1,2.957849121E-1,-8.834927673E0,1.396895142E0,8.949567126E0
1.051779767E1,4.920268250E-1,-8.931776276E0,1.157243500E0,9.019863101E0
1.052784067E1,7.720944214E-1,-8.801247711E0,1.324595490E0,8.933792268E0
1.053788367E1,1.234033813E0,-8.622818756E0,1.593885498E0,8.855298625E0
1.054792667E1,1.540147247E0,-9.004824371E0,1.981878662E0,9.348088496E0
1.055796967E1,1.804647217E0,-9.746531982E0,2.956501923E0,1.034371988E1
1.056801267E1,2.013013916E0,-1.040142014E1,3.750450897E0,1.123866753E1
1.057805567E1,1.988464966E0,-1.114073273E1,4.169878693E0,1.206058900E1
1.058809867E1,2.087109833E0,-1.156644745E1,4.237987061E0,1.249396928E1
1.059814267E1,2.040856018E0,-1.181702637E1,3.631598053E0,1.252979289E1
1.060818567E1,1.773062897E0,-1.182720520E1,2.470612335E0,1.221189830E1
1.061822867E1,1.711241455E0,-1.166748734E1,1.454375610E0,1.188165883E1
1.062827167E1,1.916764069E0,-1.157108780E1,5.998027039E-1,1.174409727E1
1.063831467E1,1.644180908E0,-1.143606857E1,-2.424957275E-2,1.155368267E1
1.064835767E1,6.277944946E-1,-1.146765289E1,-5.297483826E-1,1.149703536E1
1.065840067E1,-5.568420410E-1,-1.164458496E1,-5.489085388E-1,1.167080685E1
1.066844467E1,-1.385369110E0,-1.182825302E1,-1.077758789E-2,1.190911135E1
1.067848767E1,-2.022593994E0,-1.210218338E1,1.701960754E-1,1.227121411E1
1.068853067E1,-3.065175934E0,-1.241413467E1,1.725910950E-1,1.278811287E1
1.069857367E1,-4.414320374E0,-1.311767166E1,4.569996643E-1,1.384804618E1
1.070861667E1,-5.483247528E0,-1.375833939E1,3.318598938E-1,1.481445366E1
1.071865967E1,-5.604196014E0,-1.385878052E1,-7.315287781E-1,1.496689496E1
1.072870267E1,-4.549938354E0,-1.326855789E1,-1.173858948E0,1.407602616E1
1.073874567E1,-3.152145081E0,-1.227133163E1,-1.312021637E0,1.273746441E1
1.074878967E1,-1.052611084E0,-1.150342850E1,-1.319655762E0,1.162662241E1
1.075883267E1,1.195114746E0,-1.073582474E1,-7.288343811E-1,1.082669994E1
1.076887567E1,4.149670715E0,-9.393715668E0,2.772235107E-1,1.027319395E1
1.077891867E1,8.278534698E0,-8.635542297E0,1.309476929E0,1.203417872E1
1.078896167E1,8.710835724E0,-7.930209045E0,-5.852828979E-1,1.179446610E1
1.079900467E1,7.465275879E0,-6.675667877E0,-2.718197479E0,1.037706524E1
1.080904767E1,5.595963135E0,-7.272626495E0,-8.707392883E-1,9.217596566E0
1.081909167E1,3.607198792E0,-8.108039246E0,-4.552033997E-1,8.885909839E0
1.082913467E1,1.500330048E0,-8.328381042E0,2.888992310E-1,8.467371718E0
1.083917767E1,-8.178991699E-1,-8.542136536E0,2.199526062E0,8.858609967E0
1.084922067E1,-1.853745117E0,-8.555907898E0,2.688409424E0,9.157918767E0
1.085926367E1,-1.668729858E0,-8.350534973E0,2.213896179E0,8.798717518E0
1.086930667E1,-1.557960205E0,-8.644673309E0,1.918560333E0,8.991022766E0
1.087934967E1,-8.843609619E-1,-8.444838867E0,1.899549866E0,8.700901534E0
1.088939267E1,-1.661544800E-1,-8.153394928E0,1.762734375E0,8.343421878E0
1.089943667E1,1.880090332E-1,-8.083789673E0,1.485660553E0,8.221325328E0
1.090947967E1,2.183958435E-1,-7.974965973E0,1.050964508E0,8.046881720E0
1.091952267E1,-2.402503967E-1,-7.955805817E0,6.623725891E-1,7.986945843E0
1.092956567E1,-9.936337280E-1,-7.886200562E0,6.945556641E-1,7.978839192E0
1.093960867E1,-1.778002625E0,-7.843688965E0,9.352551270E-1,8.096879156E0
1.094965167E1,-2.063459015E0,-7.643405457E0,1.151405640E0,8.000327807E0
1.095969467E1,-2.034569092E0,-7.353907471E0,1.395398254E0,7.756710821E0
1.096973767E1,-1.756896515E0,-7.202272797E0,1.653162231E0,7.595548971E0
1.097978167E1,-1.214274902E0,-7.108417969E0,1.917362823E0,7.461926678E0
1.098982467E1,-5.613327026E-1,-7.120842133E0,2.169738007E0,7.465202616E0
1.099986767E1,2.841091919E-1,-7.232509918E0,2.231709137E0,7.574327919E0
1.100991067E1,1.204245758E0,-7.323670349E0,2.149679718E0,7.727061415E0
1.101995367E1,2.079326019E0,-7.390581207E0,1.986668701E0,7.930393421E0
1.102999667E1,3.241209869E0,-7.472760315E0,2.005679169E0,8.388702943E0
1.104003967E1,4.384083252E0,-7.844587097E0,2.345771942E0,9.287646564E0
1.105008367E1,5.298082581E0,-8.109087067E0,3.404819641E0,1.026741296E1
1.106012667E1,5.763913879E0,-8.527616730E0,3.698658600E0,1.093723117E1
1.107016967E1,5.664520569E0,-9.928104401E0,3.619622955E0,1.198981737E1
1.108021267E1,5.562432861E0,-1.083896027E1,4.887785797E0,1.312684916E1
1.109025567E1,5.498216400E0,-1.139310791E1,6.236481171E0,1.410414793E1
1.110029867E1,5.205125885E0,-1.174801987E1,7.377857666E0,1.481695279E1
1.111034167E1,4.471501465E0,-1.128907425E1,8.618328094E0,1.489003364E1
1.112038467E1,3.708687744E0,-1.124985580E1,7.869585114E0,1.422125136E1
1.113042867E1,1.466500397E0,-1.138083344E1,4.080514526E0,1.217885840E1
1.114047167E1,1.058748322E0,-1.242161911E1,-6.911128235E-1,1.248580018E1
1.115051467E1,1.059646454E0,-1.535072800E1,-4.426145782E0,1.601119818E1
1.116055767E1,-2.564167786E-1,-1.904085434E1,-7.100634155E0,2.032335821E1
1.117060067E1,-2.239043884E0,-2.293141388E1,-8.493188324E0,2.455600350E1
1.118064367E1,-3.238964539E0,-2.432202209E1,-5.813011780E0,2.521592267E1
1.119068667E1,-3.042123871E0,-1.804826843E1,-1.612147522E0,1.837371848E1
1.120072967E1,-2.512525177E0,-9.812844086E0,2.496807861E0,1.043258076E1
1.121077367E1,-1.826052704E0,-5.988297272E0,4.158951416E0,7.516052792E0
1.122081667E1,4.064048767E-1,-4.878355408E0,2.939886475E0,5.710205679E0
1.123085967E1,4.869374084E-1,-4.742737427E0,3.295247498E0,5.795629596E0
1.124090267E1,-5.851332092E-1,-4.869673462E0,2.902913361E0,5.699386500E0
1.125094563E1,-1.282682648E0,-6.431375885E0,2.155218201E0,6.903103363E0
1.126098862E1,-2.671494598E0,-8.816515961E0,2.413131866E0,9.523184472E0
1.127103163E1,-4.563260651E0,-1.165790726E1,1.820963287E0,1.265093106E1
1.128107463E1,-4.483476562E0,-1.406580002E1,1.004411316E0,1.479720022E1
1.129111862E1,-2.075883179E0,-1.531914368E1,4.605921936E-1,1.546601433E1
1.130116163E1,1.407073975E-1,-1.529549286E1,-6.050418091E-1,1.530810164E1
1.131120463E1,9.885443115E-1,-1.343680801E1,-8.713380432E-1,1.350126881E1
1.132124763E1,1.156345367E0,-1.112232101E1,-6.679110718E-1,1.120219909E1
1.133129063E1,5.179229736E-1,-9.040450287E0,1.231189728E0,9.138589264E0
1.134133362E1,3.872447205E-1,-7.478149109E0,3.073408813E0,8.094350765E0
1.135137663E1,3.023712158E-2,-6.214027863E0,3.376528473E0,7.072199169E0
1.136142063E1,-7.167095947E-1,-5.164560242E0,3.048710175E0,6.039949409E0
1.137146363E1,-1.088237000E0,-4.869972839E0,2.436632996E0,5.553204082E0
1.138150663E1,-1.254241791E0,-5.309907990E0,1.574126587E0,5.678566706E0
1.139154962E1,-1.215771790E0,-6.087091827E0,1.054407349E0,6.296234019E0
1.140159263E1,-1.025816803E0,-6.830745392E0,1.105151825E0,6.995194299E0
1.141163563E1,-2.402503967E-1,-7.456294556E0,1.419647827E0,7.594040341E0
1.142167863E1,6.950047302E-1,-8.021968231E0,1.550326080E0,8.199909562E0
1.143172163E1,1.294058990E0,-8.469836884E0,1.473535767E0,8.693907819E0
1.144176563E1,1.596130829E0,-8.752299500E0,8.481362915E-1,8.936985807E0
1.145180863E1,1.338666229E0,-8.836723938E0,5.993536377E-1,8.957619216E0
1.146185163E1,1.168619843E0,-8.647667084E0,6.198609924E-1,8.748259597E0
1.147189463E1,1.131347351E0,-8.461753693E0,1.926493835E-1,8.539223394E0
1.148193763E1,1.193917236E0,-8.409063263E0,1.327738953E-1,8.494434192E0
1.149198062E1,1.148262177E0,-8.522227936E0,1.613644409E-1,8.600750752E0
1.150202363E1,1.055006104E0,-8.658294983E0,5.477110291E-1,8.739513560E0
1.151206663E1,9.068142700E-1,-8.829688568E0,9.672885132E-1,8.928681840E0
1.152211062E1,7.087760925E-1,-8.882229309E0,1.559906158E0,9.045975253E0
1.153215363E1,6.194119263E-1,-9.101074219E0,2.071991272E0,9.354484000E0
1.154219662E1,4.746629333E-1,-9.350605316E0,2.544708252E0,9.702302034E0
1.155223963E1,1.975891113E-1,-9.457932129E0,2.800675964E0,9.865865774E0
1.156228263E1,1.553768921E-1,-9.563612366E0,2.633174286E0,9.920707146E0
1.157232563E1,4.068539429E-1,-9.483229523E0,2.249971161E0,9.754975271E0
1.158236863E1,6.972500610E-1,-9.236841888E0,1.673519897E0,9.413079972E0
1.159241162E1,9.949809265E-1,-8.915160828E0,1.342258759E0,9.070376960E0
1.160245563E1,1.246757355E0,-8.476123810E0,1.153650970E0,8.644650907E0
1.161249863E1,1.371747437E0,-8.286617889E0,1.063837738E0,8.466491470E0
1.162254162E1,1.534908142E0,-8.507558441E0,1.367705841E0,8.752434684E0
1.163258463E1,1.832489319E0,-9.246871033E0,1.937870178E0,9.623823659E0
1.164262762E1,1.819017334E0,-9.995913391E0,2.924468536E0,1.057258837E1
1.165267063E1,1.708696747E0,-1.020547760E1,4.145778809E0,1.114714760E1
1.166271363E1,1.711690521E0,-1.020802231E1,4.952301636E0,1.147427102E1
1.167275663E1,1.217568054E0,-1.018242554E1,4.593198395E0,1.123662464E1
1.168280063E1,5.972579956E-1,-9.943372650E0,3.494034119E0,1.055630860E1
1.169284363E1,3.354524231E-1,-8.909772034E0,2.960992584E0,9.394894523E0
1.170288663E1,1.733395386E-1,-7.986492004E0,2.380649414E0,8.335561935E0
1.171292963E1,-2.386038208E-1,-7.905211029E0,1.889371033E0,8.131360040E0
1.172297263E1,-6.122268677E-1,-8.694669342E0,1.075363770E0,8.782283527E0
1.173301563E1,-8.701405334E-1,-9.564510498E0,-2.784210205E-2,9.604050229E0
1.174305862E1,-6.084846497E-1,-1.045246399E1,-5.493576050E-2,1.047030443E1
1.175310163E1,4.589456177E-1,-1.206401276E1,8.649014282E-1,1.210368082E1
1.176314463E1,1.097368011E0,-1.417986282E1,9.463320923E-1,1.425371077E1
1.177318862E1,-3.010240173E-1,-1.660482010E1,8.759783936E-1,1.663063451E1
1.178323163E1,-2.405497742E0,-1.867815857E1,-1.002914429E-1,1.883268662E1
1.179327463E1,-3.219954071E0,-1.947779572E1,-1.673070831E0,1.981291993E1
1.180331763E1,-2.846929779E0,-1.881467468E1,-3.720213776E0,1.938909444E1
1.181336063E1,-2.072290649E0,-1.707499237E1,-5.033881989E0,1.792176668E1
1.182340363E1,-8.616082764E-1,-1.498803223E1,-5.468877411E0,1.597786278E1
1.183344663E1,8.399034119E-1,-1.269734573E1,-5.129832458E0,1.372017520E1
1.184348962E1,2.861000519E0,-1.074480606E1,-2.697241058E0,1.144164720E1
1.185353363E1,4.062252502E0,-9.076225891E0,1.050066376E0,9.999120522E0
1.186357663E1,5.644611969E0,-7.875872040E0,4.059408417E0,1.050570328E1
1.187361962E1,6.752907257E0,-7.422315216E0,4.586911469E0,1.103323508E1
1.188366263E1,4.630770264E0,-7.424859924E0,4.623136139E0,9.896765426E0
1.189370562E1,1.477128296E0,-8.572822723E0,3.218157806E0,9.275329488E0
1.190374863E1,-1.230441284E-1,-8.578959961E0,7.934999084E-1,8.616457275E0
1.191379163E1,-5.046006775E-1,-7.870333557E0,1.854643250E-1,7.888673473E0
1.192383562E1,-7.092251587E-1,-7.977810059E0,-4.240681458E-1,8.020491721E0
1.193387863E1,-1.433269501E0,-7.903714142E0,-5.599855042E-1,8.052114161E0
1.194392163E1,-1.618883514E0,-7.688611450E0,-2.477348328E-1,7.861100585E0
1.195396463E1,-1.384171600E0,-7.716902618E0,-2.502795410E-1,7.844052326E0
1.196400763E1,-4.532574463E-1,-7.789501648E0,-4.754113770E-1,7.817147447E0
1.197405062E1,1.279838562E-1,-7.831863556E0,-2.665956116E-1,7.837444727E0
1.198409363E1,-5.230123901E-1,-8.192463684E0,1.698966980E-1,8.210899346E0
1.199413662E1,-1.087937622E0,-8.507259064E0,4.064048767E-1,8.586165033E0
1.200418062E1,-1.221310272E0,-7.939340057E0,8.228388977E-1,8.074762113E0
1.201422363E1,-1.538500671E0,-7.362739105E0,1.304237823E0,7.633999460E0
1.202426662E1,-1.823507996E0,-7.194788361E0,1.402433624E0,7.553607154E0
1.203430963E1,-2.134261780E0,-7.109316101E0,1.571132813E0,7.587219984E0
1.204435263E1,-2.151026917E0,-6.972201233E0,2.003882904E0,7.566640835E0
1.205439563E1,-1.760189667E0,-7.026538239E0,2.207309875E0,7.572497882E0
1.206443863E1,-8.906478882E-1,-7.051236877E0,2.375709686E0,7.493810224E0
1.207448163E1,2.866539001E-1,-6.996450806E0,2.637664948E0,7.482631269E0
1.208452563E1,1.496737518E0,-6.938072205E0,2.942580872E0,7.683479114E0
1.209456863E1,2.802921295E0,-7.051835632E0,2.853516083E0,8.107237976E0
1.210461163E1,3.958218842E0,-7.163353729E0,2.652933197E0,8.603440451E0
1.211465463E1,5.128934326E0,-7.785759430E0,2.461631012E0,9.642802729E0
1.212469762E1,6.083948364E0,-8.265511780E0,3.227588196E0,1.075873776E1
1.213474063E1,5.969286804E0,-8.828491058E0,3.364253998E0,1.117554671E1
1.214478363E1,5.160518646E0,-9.758207703E0,3.546125793E0,1.159433389E1
1.215482663E1,5.116809540E0,-1.071846085E1,5.069208527E0,1.291371433E1
1.216487063E1,5.249433746E0,-1.122665405E1,6.566993866E0,1.402568089E1
1.217491363E1,5.021906891E0,-1.132020950E1,7.812553711E0,1.464249595E1
1.218495663E1,4.803361359E0,-1.097427887E1,8.186027069E0,1.450924244E1
1.219499963E1,4.182302856E0,-1.010099487E1,7.024292908E0,1.299470836E1
1.220504263E1,3.396137695E0,-9.108408966E0,4.204606476E0,1.059129741E1
1.221508563E1,2.922073517E0,-9.197773132E0,7.261399841E-1,9.678058871E0
1.222512862E1,2.098486176E0,-1.120450012E1,-1.901196442E0,1.155677356E1
1.223517163E1,4.092489624E-1,-1.402014496E1,-4.299359436E0,1.467025702E1
1.224521554E1,-1.291663971E0,-1.708112961E1,-6.003266144E0,1.815137981E1
1.225525854E1,-2.100132751E0,-2.050481003E1,-6.834038544E0,2.171547547E1
1.226530154E1,-2.001487885E0,-2.304098602E1,-5.107379150E0,2.368498074E1
1.227534454E1,-2.418370972E0,-1.976474899E1,-8.012837219E-1,1.992826828E1
1.228538754E1,-3.545077972E0,-1.194186676E1,2.611469421E0,1.272774654E1
1.229543054E1,-1.259630585E0,-7.562423859E0,3.396437073E0,8.385267355E0
1.230547354E1,7.304809570E-2,-6.186185760E0,3.796704712E0,7.258732462E0
1.231551654E1,-7.614665222E-1,-5.474116516E0,3.633693695E0,6.614341446E0
1.232556054E1,-1.871857452E0,-5.139113159E0,2.776875458E0,6.133952371E0
1.233560354E1,-2.394720154E0,-6.095624084E0,3.465293884E0,7.409425032E0
1.234564654E1,-3.436104584E0,-7.978857880E0,4.451892242E0,9.761574274E0
1.235568954E1,-4.963677979E0,-1.067115921E1,3.244503021E0,1.220813408E1
1.236573254E1,-4.650080109E0,-1.282697617E1,2.324216766E0,1.384039545E1
1.237577554E1,-2.433040466E0,-1.436218369E1,1.198856964E0,1.461606185E1
1.238581854E1,3.565585327E-1,-1.505060211E1,-1.233435059E-1,1.505533034E1
1.239586154E1,1.865570526E0,-1.439601334E1,-1.059496765E0,1.455500212E1
1.240590554E1,1.594035187E0,-1.240829681E1,-9.280700684E-1,1.254464396E1
1.241594854E1,1.285227356E0,-1.037881714E1,5.975573730E-1,1.047514818E1
1.242599154E1,1.394649811E0,-8.805888062E0,1.822759552E0,9.100064012E0
1.243603454E1,7.972421265E-1,-7.582182770E0,1.577569427E0,7.785487516E0
1.244607754E1,-8.921447754E-2,-6.623127136E0,7.194039917E-1,6.662680721E0
1.245612054E1,-5.266049194E-1,-6.010451202E0,1.974394226E-1,6.036705950E0
1.246616354E1,-7.673043823E-1,-5.960455170E0,-9.385482788E-2,6.010373580E0
1.247620654E1,-1.225052490E0,-6.264323273E0,1.062789917E-1,6.383869899E0
1.248625054E1,-1.358724518E0,-6.543642426E0,6.908134460E-1,6.718825175E0
1.249629354E1,-1.007105713E0,-6.828200684E0,1.259031830E0,7.015963771E0
1.250633654E1,-4.314028931E-1,-7.329208832E0,1.437011719E0,7.481203996E0
1.251637954E1,-1.902543640E-1,-7.806715851E0,1.383872223E0,7.930706868E0
1.252642254E1,-2.104623413E-1,-8.272397461E0,1.144519958E0,8.353848220E0
1.253646554E1,-1.442999268E-1,-8.640182648E0,9.830058289E-1,8.697119012E0
1.254650854E1,1.369651794E-1,-8.800648956E0,7.375163269E-1,8.832559756E0
1.255655154E1,4.168830872E-1,-8.954528961E0,5.155279541E-1,8.979039453E0
1.256659554E1,8.267308044E-1,-9.023236084E0,5.125341797E-1,9.075514560E0
1.257663854E1,9.595046997E-1,-8.947194214E0,4.876858521E-1,9.011701896E0
1.258668154E1,8.460406494E-1,-8.800199890E0,5.626799011E-1,8.858663080E0
1.259672454E1,4.911286926E-1,-8.624914398E0,7.385641479E-1,8.670399804E0
1.260676754E1,1.457968140E-1,-8.505313110E0,1.291364594E0,8.604024078E0
1.261681054E1,3.293151855E-3,-8.818611603E0,1.748364258E0,8.990255782E0
1.262685354E1,-7.080276489E-2,-9.172326050E0,2.630479889E0,9.542326899E0
1.263689654E1,-1.032852173E-2,-9.419911194E0,3.039429474E0,9.898129374E0
1.264694054E1,4.466711426E-1,-9.494156799E0,2.891387329E0,9.934719378E0
1.265698354E1,1.052760773E0,-9.502838745E0,2.461331635E0,9.872710007E0
1.266702654E1,1.410816193E0,-9.419611816E0,1.830693054E0,9.699016763E0
1.267706954E1,1.558708649E0,-9.067094879E0,1.488953705E0,9.319805005E0
1.268711254E1,1.517544250E0,-8.464597778E0,1.437760162E0,8.718916813E0
1.269715554E1,1.219813385E0,-8.327782288E0,1.290466461E0,8.514998897E0
1.270719854E1,7.625143433E-1,-8.803493042E0,1.435514832E0,8.952296951E0
1.271724154E1,4.300556946E-1,-9.699829102E0,2.270029449E0,9.971191814E0
1.272728554E1,3.492237854E-1,-1.027313690E1,3.550466766E0,1.087497647E1
1.273732854E1,4.583468628E-1,-1.040635986E1,4.794080658E0,1.146671779E1
1.274737154E1,4.661306763E-1,-1.032717453E1,5.307662659E0,1.162063228E1
1.275741454E1,4.058061218E-1,-1.027598099E1,4.522994385E0,1.123467588E1
1.276745754E1,5.911207581E-1,-9.919871521E0,3.755091248E0,1.062327563E1
1.277750054E1,6.685098267E-1,-9.105714569E0,3.025508423E0,9.618453328E0
1.278754354E1,8.041278076E-1,-8.414751434E0,1.921105042E0,8.668639329E0
1.279758654E1,1.072070618E0,-8.410260773E0,5.174739075E-1,8.494092119E0
1.280763054E1,1.484163666E0,-9.056167603E0,-7.765850830E-1,9.209777295E0
1.281767354E1,1.741927643E0,-1.026086243E1,-1.717229004E0,1.054838780E1
1.282771654E1,1.982028351E0,-1.204275696E1,-1.375639343E0,1.228205256E1
1.283775954E1,1.565744019E0,-1.378243927E1,-5.566923523E-1,1.388225821E1
1.284780254E1,-4.059558105E-1,-1.556208847E1,-4.038601685E-1,1.557262023E1
1.285784554E1,-3.036735077E0,-1.712364120E1,-4.933740234E-1,1.739782360E1
1.286788854E1,-5.065466309E0,-1.834974152E1,-1.071920929E0,1.906622608E1
1.287793154E1,-5.775290222E0,-1.867276978E1,-1.613644409E0,1.961199012E1
1.288797554E1,-5.681435394E0,-1.776251266E1,-1.996398468E0,1.875556374E1
1.289801854E1,-4.083208923E0,-1.585892120E1,-2.425406342E0,1.655477492E1
1.290806154E1,-1.903890839E0,-1.384695511E1,-2.393372955E0,1.418066290E1
1.291810454E1,5.613327026E-1,-1.194845306E1,-2.222727814E0,1.216639404E1
1.292814754E1,3.120710449E0,-1.016985168E1,-2.161654816E0,1.085529680E1
1.293819054E1,5.294939117E0,-9.048683167E0,-1.189725952E0,1.055132670E1
1.294823354E1,6.902745667E0,-7.918832703E0,1.853146362E-1,1.050667172E1
1.295827654E1,7.598349152E0,-7.071295166E0,1.906585236E0,1.055334982E1
1.296832054E1,4.673880615E0,-7.514373779E0,1.322948914E0,8.947690603E0
1.297836354E1,3.321443024E0,-6.900500336E0,7.412585449E-1,7.694046586E0
1.298840654E1,2.821033630E0,-5.971981201E0,1.627715149E0,6.802370676E0
1.299844954E1,1.786834259E0,-6.574777679E0,9.128018188E-1,6.874131608E0
1.300849254E1,6.598278809E-1,-7.138355713E0,2.221380615E-1,7.172227021E0
1.301853554E1,-1.126557312E0,-7.218289490E0,7.914042664E-1,7.348411750E0
1.302857854E1,-1.331780548E0,-7.288942566E0,1.394949188E0,7.539774957E0
1.303862154E1,-1.517993317E0,-7.595056000E0,1.618284760E0,7.912523296E0
1.304866554E1,-1.237177277E0,-7.600295105E0,1.357227631E0,7.819025524E0
1.305870854E1,-6.307882690E-1,-8.269104309E0,1.183289337E0,8.377120840E0
1.306875154E1,5.239105225E-2,-8.769663391E0,1.379830627E0,8.877706538E0
1.307879454E1,2.508782959E-1,-8.401129761E0,1.401685181E0,8.520953146E0
1.308883754E1,-3.700305176E-1,-8.473429413E0,9.888436890E-1,8.538954294E0
1.309888054E1,-8.457412720E-1,-8.466843109E0,8.722361755E-1,8.553566886E0
1.310892354E1,-1.303489380E0,-8.182733917E0,1.083896027E0,8.356497443E0
1.311896654E1,-1.758094025E0,-7.877219238E0,1.426533508E0,8.196125632E0
1.312901054E1,-1.776805115E0,-7.512427826E0,1.647773438E0,7.893590156E0
1.313905354E1,-1.620829468E0,-7.210355988E0,1.849853210E0,7.618285800E0
1.314909654E1,-1.215472412E0,-6.986870728E0,1.982926483E0,7.363812408E0
1.315913954E1,-5.679190063E-1,-6.824308777E0,2.259251862E0,7.210959801E0
1.316918254E1,3.694317627E-1,-6.817273407E0,2.300416260E0,7.204416111E0
1.317922554E1,1.367855530E0,-6.795867920E0,2.462678833E0,7.356604962E0
1.318926854E1,2.467618561E0,-6.647526398E0,2.839894409E0,7.638307982E0
1.319931254E1,3.748205566E0,-6.790628815E0,3.061134338E0,8.338598690E0
1.320935554E1,4.780458984E0,-7.154073029E0,3.201392670E0,9.180548133E0
1.321939854E1,5.700146484E0,-7.442074127E0,3.343447266E0,9.952626632E0
1.322944154E1,6.221961365E0,-8.433312836E0,3.013832703E0,1.090489597E1
1.323948454E1,5.756279755E0,-9.996212769E0,2.697390747E0,1.184630504E1
1.324952742E1,5.206024017E0,-1.076261902E1,3.511098633E0,1.246051635E1
1.325957042E1,5.001848602E0,-1.125748993E1,4.569996643E0,1.313904252E1
1.326961342E1,4.361779633E0,-1.185908890E1,5.427413635E0,1.375208820E1
1.327965742E1,4.257895660E0,-1.185355042E1,6.561605072E0,1.420179545E1
1.328970042E1,4.251309357E0,-1.136302048E1,7.545359344E0,1.428720803E1
1.329974342E1,3.095263367E0,-1.136646332E1,6.356381836E0,1.338584079E1
1.330978642E1,1.984722748E0,-1.198123489E1,3.024011536E0,1.251534098E1
1.331982942E1,1.658251648E0,-1.359203522E1,-7.738906860E-1,1.371466830E1
1.332987242E1,8.988807678E-1,-1.610006973E1,-3.741020508E0,1.655341253E1
1.333991542E1,-7.997868347E-1,-1.871049133E1,-5.411097565E0,1.949364311E1
1.334995842E1,-2.310894470E0,-2.086331451E1,-5.471721497E0,2.169234570E1
1.336000242E1,-2.560425568E0,-2.010394363E1,-4.067042542E0,2.067039341E1
1.337004542E1,-1.844314728E0,-1.452309906E1,-1.046324158E0,1.467708068E1
1.338008842E1,-1.730551300E0,-9.370214539E0,1.003513184E0,9.581376050E0
1.339013142E1,-8.538244629E-1,-6.314768372E0,2.635569305E0,6.895762566E0
1.340017442E1,1.440753937E0,-4.953050079E0,2.851420441E0,5.893986387E0
1.341021742E1,1.314416656E0,-4.992567902E0,2.605631561E0,5.782969932E0
1.342026042E1,-1.881587219E-1,-5.090015259E0,2.807262268E0,5.815873149E0
1.343030342E1,-1.177301788E0,-6.181545410E0,2.761158142E0,6.871792884E0
1.344034742E1,-2.309996338E0,-8.209079132E0,3.317700806E0,9.150530144E0
1.345039042E1,-4.227359161E0,-1.085572540E1,3.000660095E0,1.203001665E1
1.346043342E1,-5.628744965E0,-1.332678680E1,2.206711121E0,1.463405584E1
1.347047642E1,-4.239334259E0,-1.470362366E1,1.625469818E0,1.538865347E1
1.348051942E1,-1.197958832E0,-1.498144592E1,3.592529297E-3,1.502926612E1
1.349056242E1,4.171824646E-1,-1.384291351E1,-1.721869354E0,1.395582781E1
1.350060542E1,3.403921509E-1,-1.179367493E1,-1.450034637E0,1.188735612E1
1.351064842E1,8.337661743E-2,-1.014530273E1,5.665718079E-1,1.016145279E1
1.352069242E1,4.590953064E-1,-8.968150635E0,2.131268005E0,9.229344376E0
1.353073542E1,6.735992432E-1,-8.028554535E0,3.101250916E0,8.633028501E0
1.354077842E1,2.351609802E-1,-7.126081238E0,2.815794525E0,7.665835460E0
1.355082142E1,-9.639953613E-2,-6.402635651E0,2.007176056E0,6.710573140E0
1.356086442E1,-2.272274780E-1,-6.352938995E0,9.533674622E-1,6.428092697E0
1.357090742E1,-3.167413330E-1,-6.771468658E0,4.415817261E-2,6.779016360E0
1.358095042E1,-3.632945251E-1,-7.377408600E0,-1.553768921E-1,7.387982305E0
1.359099342E1,-2.694396973E-2,-7.887098694E0,4.040098572E-1,7.897485407E0
1.360103742E1,5.827381897E-1,-8.293054504E0,7.994874573E-1,8.351857099E0
1.361108042E1,1.057999878E0,-8.540789337E0,9.060658264E-1,8.653635162E0
1.362112342E1,1.240320740E0,-8.741970978E0,6.499484253E-1,8.853410929E0
1.363116642E1,1.120569763E0,-8.762777710E0,8.433462524E-1,8.874298997E0
1.364120942E1,1.059796143E0,-8.700656891E0,1.055604858E0,8.828301072E0
1.365125242E1,1.142723694E0,-8.541088715E0,8.442443848E-1,8.658450349E0
1.366129542E1,1.225501556E0,-8.477321320E0,7.722441101E-1,8.600185567E0
1.367133842E1,1.210233307E0,-8.396788788E0,7.387138367E-1,8.515657622E0
1.368138242E1,1.162183228E0,-8.372838593E0,6.765930176E-1,8.480145875E0
1.369142542E1,1.025816803E0,-8.277486877E0,7.849676514E-1,8.377664551E0
1.370146842E1,8.833131409E-1,-8.253536682E0,1.047371979E0,8.366486594E0
1.371151142E1,6.399192810E-1,-8.364006958E0,1.320703583E0,8.491782324E0
1.372155442E1,3.820056152E-1,-8.486602020E0,1.764231262E0,8.676454004E0
1.373159742E1,2.812651062E-1,-8.624465332E0,2.320175171E0,8.935531610E0
1.374164042E1,3.650907898E-1,-8.812324677E0,2.656525726E0,9.211269534E0
1.375168342E1,4.903802490E-1,-8.956774292E0,2.769241333E0,9.387916492E0
1.376172742E1,5.254074097E-1,-9.131760406E0,2.510878601E0,9.485231279E0
1.377177042E1,7.185058594E-1,-9.149273987E0,2.010768585E0,9.395139991E0
1.378181342E1,7.219487000E-1,-8.997489624E0,1.490151215E0,9.148583502E0
1.379185642E1,6.840774536E-1,-8.799152069E0,1.291963348E0,8.919765041E0
1.380189942E1,7.030879211E-1,-8.607251129E0,1.038989410E0,8.698195423E0
1.381194242E1,4.561015320E-1,-8.748108215E0,1.019529877E0,8.819119408E0
1.382198542E1,4.215234375E-1,-9.262438660E0,1.428180084E0,9.381372516E0
1.383202842E1,5.388793945E-1,-1.005983047E1,2.339934082E0,1.034243065E1
1.384207242E1,6.331832886E-1,-1.061442719E1,3.482657776E0,1.118909696E1
1.385211542E1,7.438032532E-1,-1.081920135E1,4.608616333E0,1.178336564E1
1.386215842E1,7.909552002E-1,-1.102023331E1,5.013075256E0,1.213268626E1
1.387220142E1,1.334774323E0,-1.103235809E1,4.672234039E0,1.205505365E1
1.388224442E1,1.696871338E0,-1.051608170E1,4.267775116E0,1.147524514E1
1.389228742E1,1.572629700E0,-9.551487579E0,3.514691162E0,1.029840440E1
1.390233042E1,1.258133698E0,-8.608897705E0,2.046244812E0,8.937736734E0
1.391237342E1,1.102756805E0,-8.279732208E0,8.758287048E-1,8.398637624E0
1.392241742E1,1.001417542E0,-8.338260498E0,9.340576172E-2,8.398699296E0
1.393246042E1,3.920347595E-1,-8.714877319E0,-7.596702576E-1,8.756704680E0
1.394250342E1,3.233276367E-2,-9.519454193E0,-7.951464844E-1,9.552659916E0
1.395254642E1,1.862127686E-1,-1.088207062E1,2.043251038E-1,1.088558151E1
1.396258942E1,-9.744735718E-2,-1.269225632E1,6.575825500E-1,1.270965307E1
1.397263242E1,-1.420695648E0,-1.490016495E1,1.187330933E0,1.501476095E1
1.398267542E1,-3.687282257E0,-1.748738480E1,1.023122406E0,1.790115798E1
1.399271842E1,-5.011129303E0,-1.906959457E1,7.858657837E-2,1.971717601E1
1.400276242E1,-4.769831085E0,-1.915431839E1,-1.560355225E0,1.980085629E1
1.401280542E1,-3.260220337E0,-1.752869888E1,-2.511028290E0,1.800526546E1
1.402284842E1,-1.310225372E0,-1.563064590E1,-3.273692322E0,1.602344667E1
1.403289142E1,5.186714172E-1,-1.344234650E1,-4.151017914E0,1.407823317E1
1.404293442E1,2.858605499E0,-1.127754822E1,-3.824397125E0,1.224666210E1
1.405297742E1,5.142855377E0,-9.461524658E0,-2.174228668E0,1.098620410E1
1.406302042E1,7.466922455E0,-8.039930878E0,-3.882925415E-1,1.097935292E1
1.407306342E1,7.913443909E0,-7.458689575E0,4.254153442E-1,1.088281319E1
1.408310742E1,6.261179810E0,-7.046895905E0,6.947053528E-1,9.452181231E0
1.409315042E1,4.166286163E0,-6.680308228E0,1.819316711E0,8.080493284E0
1.410319342E1,2.832709351E0,-7.401508484E0,2.472408600E0,8.301769353E0
1.411323642E1,1.024768982E0,-7.692653046E0,1.604064331E0,7.924650448E0
1.412327942E1,-3.255729675E-1,-7.798183594E0,1.460063782E0,7.940368465E0
1.413332242E1,-2.003284149E0,-7.678282928E0,2.054627380E0,8.196991508E0
1.414336542E1,-2.621049500E0,-7.276219025E0,2.066153412E0,8.005139205E0
1.415340842E1,-2.395468597E0,-7.055727539E0,1.766177216E0,7.657737451E0
1.416345242E1,-1.780547333E0,-7.089856567E0,1.229842529E0,7.412754387E0
1.417349542E1,-9.446855164E-1,-7.142097931E0,1.015488281E0,7.275521289E0
1.418353842E1,-2.761756897E-1,-7.652985535E0,1.030906219E0,7.727045246E0
1.419358142E1,3.399430847E-1,-8.208929443E0,8.434959412E-1,8.259150641E0
1.420362442E1,6.059399414E-1,-8.118517456E0,5.733078003E-1,8.161260364E0
1.421366742E1,2.242337036E-1,-8.227041779E0,2.462379456E-1,8.233779831E0
1.422371042E1,-5.447172546E-1,-8.273145905E0,2.383044434E-1,8.294483049E0
1.423375342E1,-1.137484589E0,-8.183632050E0,5.767506409E-1,8.282411848E0
1.424379742E1,-1.149309998E0,-7.902067566E0,1.120270386E0,8.063410632E0
1.425384117E1,-8.583151245E-1,-7.654931488E0,1.669029236E0,7.881645737E0
1.426388417E1,-3.309617615E-1,-7.390132141E0,2.150577850E0,7.703802557E0
1.427392717E1,4.390370178E-1,-7.202871552E0,2.599045258E0,7.670016189E0
1.428397017E1,1.243314514E0,-7.021299133E0,3.032394104E0,7.748540927E0
1.429401317E1,2.201771393E0,-6.910828857E0,3.148103485E0,7.906826691E0
1.430405617E1,3.226390686E0,-6.850055237E0,3.007246399E0,8.147170338E0
1.431410017E1,4.243226166E0,-7.150480499E0,2.702330475E0,8.742821607E0
1.432414317E1,5.101840668E0,-7.479047241E0,2.749632111E0,9.461786437E0
1.433418617E1,5.694608002E0,-8.039481812E0,3.022814026E0,1.030530120E1
1.434422917E1,6.004912720E0,-9.023535461E0,2.709066467E0,1.117238605E1
1.435427217E1,5.610632629E0,-1.031460068E1,2.889890442E0,1.209221454E1
1.436431517E1,5.362448730E0,-1.117201767E1,4.534520416E0,1.319589749E1
1.437435817E1,5.395380249E0,-1.165775757E1,6.008505249E0,1.418152230E1
1.438440117E1,5.417085114E0,-1.155911270E1,7.414681091E0,1.476263504E1
1.439444517E1,5.360053711E0,-1.103086121E1,8.086334381E0,1.469009457E1
1.440448817E1,4.867877197E0,-1.036160294E1,6.832691345E0,1.333209341E1
1.441453117E1,2.918630676E0,-1.008557693E1,3.403173065E0,1.103715788E1
1.442457417E1,2.424059143E0,-1.078447357E1,-9.361532593E-1,1.109312020E1
1.443461717E1,1.889520721E0,-1.258298355E1,-3.976181488E0,1.333085829E1
1.444466017E1,4.340972900E-1,-1.505599091E1,-5.235961761E0,1.594636630E1
1.445470317E1,-1.956431580E0,-1.822744583E1,-6.584806824E0,1.947888824E1
1.446474617E1,-3.810625763E0,-2.165352127E1,-7.630083160E0,2.327260237E1
1.447479017E1,-3.727698212E0,-2.226754440E1,-4.940027161E0,2.311153686E1
1.448483317E1,-2.980601807E0,-1.630798737E1,8.985813904E-1,1.660246631E1
1.449487617E1,-2.060016174E0,-9.255103912E0,4.453987885E0,1.047562042E1
1.450491917E1,-6.018983459E-1,-5.834866333E0,4.426894226E0,7.348832508E0
1.451496217E1,2.423460388E-1,-5.062622223E0,5.126239929E0,7.208828697E0
1.452500517E1,-1.291813660E-1,-5.088668060E0,4.356989594E0,6.700342437E0
1.453504817E1,-1.784139862E0,-5.095853119E0,3.645968170E0,6.514902759E0
1.454509117E1,-2.597398682E0,-6.330186310E0,4.238885193E0,8.048968027E0
1.455513517E1,-3.505709839E0,-8.469238129E0,4.218976593E0,1.009047865E1
1.456517817E1,-4.631818085E0,-1.133113678E1,1.906435547E0,1.238882141E1
1.457522117E1,-3.974983978E0,-1.408106827E1,2.787203979E-1,1.463402427E1
1.458526417E1,-1.194515991E0,-1.606324631E1,-2.579136658E-1,1.610966387E1
1.459530717E1,8.491841125E-1,-1.686467972E1,-1.082997894E0,1.692073935E1
1.460535017E1,1.483714600E0,-1.549173477E1,-6.944059753E-1,1.557810819E1
1.461539317E1,1.097218323E0,-1.292801605E1,-6.182144165E-2,1.297464100E1
1.462543617E1,5.743556213E-1,-1.034423904E1,1.443897400E0,1.046030619E1
1.463548017E1,4.927752686E-1,-8.274642792E0,2.544708252E0,8.671106093E0
1.464552317E1,2.043251038E-1,-6.801107025E0,2.045346680E0,7.104945359E0
1.465556617E1,-9.774673462E-2,-5.691614227E0,1.323697357E0,5.844330726E0
1.466560917E1,5.328918457E-2,-5.350922699E0,6.583309937E-1,5.391531616E0
1.467565217E1,1.547781372E-1,-5.492977295E0,-3.652404785E-2,5.495278868E0
1.468569517E1,-5.448669434E-2,-5.984854431E0,-3.463796997E-1,5.995117201E0
1.469573817E1,-1.736389160E-1,-6.659351807E0,1.242416382E-1,6.662773667E0
1.470578117E1,-1.318757629E-1,-7.184908905E0,7.388635254E-1,7.224003495E0
1.471582517E1,1.639091492E-1,-7.701634369E0,1.135388947E0,7.786600428E0
1.472586817E1,4.867877197E-1,-8.115074615E0,1.382075958E0,8.246304157E0
1.473591117E1,5.667214966E-1,-8.332123260E0,1.332978058E0,8.457084710E0
1.474595417E1,6.617738342E-1,-8.394693146E0,1.074465637E0,8.489010191E0
1.475599717E1,1.037791901E0,-8.418793030E0,7.990383911E-1,8.520067515E0
1.476604017E1,1.387315063E0,-8.432564392E0,5.209167480E-1,8.561783668E0
1.477608317E1,1.527124329E0,-8.501720581E0,2.532733154E-1,8.641499229E0
1.478612617E1,1.442849579E0,-8.689729614E0,1.751358032E-2,8.808718545E0
1.479617017E1,1.246907043E0,-8.867260437E0,1.496887207E-3,8.954500939E0
1.480621317E1,1.008452911E0,-8.938212891E0,1.264869690E-1,8.995811576E0
1.481625617E1,8.328680420E-1,-9.074130249E0,6.424639893E-1,9.134892935E0
1.482629917E1,5.029541016E-1,-9.056017914E0,1.294208679E0,9.161844759E0
1.483634217E1,2.299218750E-1,-9.111702118E0,1.865420837E0,9.303535589E0
1.484638517E1,5.313949585E-2,-9.216035156E0,2.421514435E0,9.529000995E0
1.485642817E1,-6.286926270E-2,-9.398056641E0,2.702929230E0,9.779225306E0
1.486647117E1,7.214996338E-2,-9.633367310E0,2.671943665E0,9.997312353E0
1.487651517E1,2.755769348E-1,-9.697583771E0,2.370171204E0,9.986830587E0
1.488655817E1,8.110134888E-1,-9.612111511E0,1.915117493E0,9.834536369E0
1.489660117E1,1.265917511E0,-9.335486755E0,1.737886047E0,9.579880376E0
1.490664417E1,1.622775421E0,-8.755442963E0,1.705553284E0,9.066426724E0
1.491668717E1,1.782792664E0,-7.892337799E0,1.650617523E0,8.257837721E0
1.492673017E1,1.735341339E0,-7.619305573E0,1.584604797E0,7.973468463E0
1.493677317E1,1.549278259E0,-8.388106842E0,2.223625946E0,8.815050304E0
1.494681617E1,1.021475830E0,-9.592053223E0,3.380420380E0,1.022145488E1
1.495686017E1,5.083428955E-1,-1.040022263E1,4.435725861E0,1.131806994E1
1.496690317E1,2.474354553E-1,-1.076785812E1,4.935386810E0,1.184761731E1
1.497694617E1,6.679110718E-1,-1.070034851E1,4.403393097E0,1.159023012E1
1.498698917E1,1.016386414E0,-1.046488815E1,3.093018036E0,1.095963895E1
1.499703217E1,7.125183105E-1,-9.767488403E0,1.785636749E0,9.954898827E0
1.500707517E1,5.390290833E-1,-8.936117249E0,6.875202942E-1,8.978720844E0
1.501711817E1,6.893165588E-1,-8.622519379E0,-2.594105530E-1,8.653917702E0
1.502716117E1,5.578898621E-1,-8.701255646E0,-7.355703735E-1,8.750094553E0
1.503720517E1,1.363664246E-1,-9.207502899E0,-8.840615845E-1,9.250852411E0
1.504724817E1,-3.863465881E-1,-1.019919067E1,-3.914360046E-1,1.021400882E1
1.505729117E1,-6.959028625E-1,-1.143546982E1,3.068618774E-1,1.146073361E1
1.506733417E1,-1.350042572E0,-1.302710999E1,7.773335266E-1,1.311992595E1
1.507737717E1,-2.572849731E0,-1.492127106E1,1.202599182E0,1.518914515E1
1.508742017E1,-4.326004028E0,-1.700897964E1,1.353934479E0,1.760263725E1
1.509746317E1,-5.586832123E0,-1.847577942E1,9.083111572E-1,1.932335756E1
1.510750617E1,-5.018464050E0,-1.861918121E1,2.604583740E-2,1.928366067E1
1.511755017E1,-2.814746704E0,-1.741987518E1,-1.012943573E0,1.767486648E1
1.512759317E1,1.422042847E-2,-1.560040878E1,-2.601290588E0,1.581580441E1
1.513763617E1,2.440075836E0,-1.395547943E1,-4.159699860E0,1.476524565E1
1.514767917E1,4.706063690E0,-1.202808746E1,-4.812342682E0,1.378334377E1
1.515772217E1,6.368207245E0,-1.023616379E1,-4.155658264E0,1.275157277E1
1.516776517E1,7.813601532E0,-8.302035828E0,-1.945204926E0,1.156546540E1
1.517780817E1,8.543633423E0,-7.239395599E0,-8.036787415E-1,1.122712876E1
1.518785217E1,7.714208221E0,-6.654861145E0,3.736230469E-1,1.019488987E1
1.519789517E1,4.862488403E0,-7.467820587E0,1.491348724E0,9.035278569E0
1.520793817E1,2.244432678E0,-7.714357910E0,1.379381561E0,8.151778303E0
1.521798117E1,2.649490356E-1,-7.834408264E0,2.075733490E0,8.109057921E0
1.522802417E1,-8.743318176E-1,-7.600295105E0,2.462379456E0,8.036930657E0
1.523806717E1,-1.735191650E0,-7.521708527E0,2.465073853E0,8.103306629E0
1.524810967E1,-2.455643463E0,-7.276219025E0,2.743644562E0,8.154822720E0
1.525815267E1,-2.303559723E0,-6.907086639E0,2.393372955E0,7.664363466E0
1.526819567E1,-1.909429321E0,-6.830446014E0,1.868414612E0,7.334295212E0
1.527823967E1,-1.298250275E0,-6.691534882E0,1.505419464E0,6.980571654E0
1.528828267E1,-7.333250427E-1,-7.353159027E0,1.060694275E0,7.465372438E0
1.529832567E1,-1.854643250E-1,-7.745193787E0,7.098239136E-1,7.779863353E0
1.530836867E1,-1.933978271E-1,-7.864944763E0,4.346960449E-1,7.879322274E0
1.531841167E1,-7.062313843E-1,-8.176896057E0,2.977308655E-1,8.212736180E0
1.532845467E1,-1.319805450E0,-8.416398010E0,4.299060059E-1,8.530091504E0
1.533849767E1,-1.641785889E0,-8.344547424E0,6.566844177E-1,8.529839802E0
1.534854167E1,-1.520987091E0,-7.958799591E0,1.149459686E0,8.183956881E0
1.535858467E1,-1.208137665E0,-7.508086853E0,1.677561493E0,7.787501356E0
1.536862767E1,-6.975494385E-1,-7.160659332E0,2.195634155E0,7.522129129E0
1.537867067E1,5.104385376E-2,-6.928043060E0,2.828218689E0,7.483261794E0
1.538871367E1,9.810598755E-1,-6.881938934E0,3.107986908E0,7.614666414E0
1.539875667E1,2.121238861E0,-6.994055786E0,2.966980133E0,7.887930131E0
1.540879967E1,3.205284576E0,-7.035070496E0,3.131338348E0,8.340943948E0
1.541884267E1,4.307592316E0,-7.416776733E0,2.990630951E0,9.083380547E0
1.542888667E1,5.365592194E0,-7.460635529E0,3.262016602E0,9.751482676E0
1.543892967E1,6.111042023E0,-7.812853088E0,3.005300446E0,1.036423363E1
1.544897267E1,6.180946655E0,-8.733588409E0,2.434687042E0,1.097302916E1
1.545901567E1,5.741909637E0,-9.935588837E0,2.276466064E0,1.169904909E1
1.546905867E1,5.442981262E0,-1.066352509E1,3.533551941E0,1.248290037E1
1.547910167E1,5.145699463E0,-1.108744354E1,5.011129303E0,1.321064132E1
1.548914467E1,4.563709717E0,-1.106334366E1,6.214626617E0,1.348505110E1
1.549918767E1,4.178860016E0,-1.088970474E1,6.820267181E0,1.351164627E1
1.550923167E1,4.029919739E0,-1.077788727E1,6.555767212E0,1.324315638E1
1.551927467E1,2.508184204E0,-1.115615067E1,4.129911804E0,1.215758435E1
1.552931767E1,1.731299744E0,-1.220007980E1,1.688488770E-1,1.232346769E1
1.553936067E1,1.293759613E0,-1.360625565E1,-2.981350250E0,1.398901197E1
1.554940367E1,5.095404053E-1,-1.550400925E1,-3.835174713E0,1.597943989E1
1.555944667E1,-7.500901794E-1,-1.831142120E1,-4.186194763E0,1.879880338E1
1.556948967E1,-2.350262604E0,-2.103994720E1,-4.624034271E0,2.166990553E1
1.557953267E1,-3.054098969E0,-2.191248276E1,-4.455185394E0,2.256840929E1
1.558957667E1,-1.981279907E0,-1.661275360E1,-8.443940735E-1,1.675177763E1
1.559961967E1,-2.070195007E0,-9.457333374E0,2.892734528E0,1.010419591E1
1.560966267E1,-1.095272369E0,-5.902226257E0,3.008593597E0,6.714724997E0
1.561970567E1,1.823208618E-1,-5.220394135E0,2.602488098E0,5.835983218E0
1.562974867E1,3.499722290E-1,-5.268593903E0,2.058070221E0,5.667117019E0
1.563979167E1,-5.463638306E-2,-5.040767670E0,2.280657349E0,5.532966815E0
1.564983467E1,-5.275030518E-1,-6.011199646E0,2.618205414E0,6.577824887E0
1.565987867E1,-1.444346466E0,-8.121361542E0,3.181334381E0,8.841014560E0
1.566992167E1,-3.197800140E0,-1.092024124E1,2.679128723E0,1.168996686E1
1.567996467E1,-3.850293274E0,-1.350072510E1,1.501377869E0,1.411908184E1
1.569000767E1,-2.307301941E0,-1.497021927E1,1.338366852E0,1.520599661E1
1.570005067E1,-3.486250305E-1,-1.512829056E1,3.676354980E-1,1.513677213E1
1.571009367E1,5.813909912E-1,-1.383198624E1,-1.302142181E0,1.390530233E1
1.572013667E1,2.793191528E-1,-1.179876434E1,-1.461261292E0,1.189218835E1
1.573017967E1,-4.640350342E-2,-9.888287201E0,3.005749512E-1,9.892963275E0
1.574022367E1,7.289840698E-2,-8.558003540E0,1.870510254E0,8.760339456E0
1.575026667E1,-2.134561157E-1,-7.591164093E0,2.481539612E0,7.989328798E0
1.576030967E1,-7.973918152E-1,-6.531667328E0,1.981429596E0,6.872013899E0
1.577035267E1,-1.119971008E0,-6.097420349E0,1.416953430E0,6.359294536E0
1.578039567E1,-1.292562103E0,-6.273603973E0,9.312135315E-1,6.472710580E0
1.579043867E1,-1.371747437E0,-6.904392242E0,7.035369873E-1,7.074410757E0
1.580048167E1,-1.194665680E0,-7.523953857E0,8.399034119E-1,7.664368563E0
1.581052467E1,-8.909472656E-1,-8.120164032E0,1.156345367E0,8.250332451E0
1.582056867E1,-2.767744446E-1,-8.716523895E0,1.373693390E0,8.828444169E0
1.583061167E1,3.252735901E-1,-9.035809937E0,1.392703857E0,9.148294276E0
1.584065467E1,5.499563599E-1,-9.029073944E0,1.464704132E0,9.163623000E0
1.585069767E1,7.804769897E-1,-9.027277679E0,1.088087311E0,9.126051755E0
1.586074067E1,8.521778870E-1,-8.916957092E0,8.116122437E-1,8.994278480E0
1.587078367E1,8.815168762E-1,-8.853189697E0,4.646337891E-1,8.909092231E0
1.588082667E1,8.527766418E-1,-8.778644714E0,2.215393066E-1,8.822749610E0
1.589086967E1,9.725276184E-1,-8.695866852E0,1.251397705E-1,8.750975388E0
1.590091367E1,1.120420074E0,-8.743168488E0,1.257385254E-1,8.815562746E0
1.591095667E1,1.241817627E0,-8.909622345E0,2.526745605E-1,8.999295849E0
1.592099967E1,1.337019653E0,-9.058562622E0,3.564088440E-1,9.163634955E0
1.593104267E1,1.324146423E0,-9.174721069E0,6.563850403E-1,9.292992617E0
1.594108567E1,1.230441284E0,-9.276659088E0,9.476792908E-1,9.405768742E0
1.595112867E1,1.076860657E0,-9.463320923E0,1.149160309E0,9.593468673E0
1.596117167E1,9.024732971E-1,-9.645641785E0,1.264869690E0,9.769992775E0
1.597121467E1,8.056246948E-1,-9.757010193E0,1.489253082E0,9.902835644E0
1.598125867E1,8.860075378E-1,-9.756561127E0,1.775008850E0,9.956211669E0
1.599130167E1,9.086105347E-1,-9.610764313E0,2.163900146E0,9.893170757E0
1.600134467E1,8.208929443E-1,-9.292526093E0,2.437082062E0,9.641798348E0
1.601138767E1,7.653584290E-1,-8.807085571E0,2.534679108E0,9.196473670E0
1.602143067E1,7.300318909E-1,-8.152047729E0,2.360291748E0,8.518204381E0
1.603147367E1,9.482780457E-1,-7.300618286E0,1.761536865E0,7.569760283E0
1.604151667E1,1.277892609E0,-6.711293793E0,8.068222046E-1,6.879348513E0
1.605155967E1,1.797462158E0,-7.064708862E0,1.781295776E-2,7.289807873E0
1.606160367E1,2.273322601E0,-8.405919800E0,1.910028076E-1,8.709992273E0
1.607164667E1,2.887196045E0,-9.899962921E0,1.491797791E0,1.041972300E1
1.608168967E1,2.881807251E0,-1.065663940E1,2.867886200E0,1.140585585E1
1.609173267E1,1.937421112E0,-1.082324295E1,3.638932800E0,1.158179694E1
1.610177567E1,1.561103668E0,-1.077878540E1,4.135599976E0,1.164999771E1
1.611181867E1,1.616338806E0,-1.039243881E1,4.103267212E0,1.128947020E1
1.612186167E1,1.282233582E0,-9.536518707E0,3.579506378E0,1.026655628E1
1.613190467E1,1.018332367E0,-8.780590668E0,2.638114014E0,9.224717819E0
1.614194867E1,1.190624084E0,-8.658744049E0,1.594783630E0,8.884524132E0
1.615199167E1,9.785151672E-1,-9.098828888E0,5.977070618E-1,9.170792376E0
1.616203467E1,3.382965088E-2,-1.021730301E1,4.643344116E-1,1.022790456E1
1.617207767E1,-9.804611206E-1,-1.146660507E1,2.595602417E-1,1.151137296E1
1.618212067E1,-1.496438141E0,-1.258956985E1,6.433621216E-1,1.269450712E1
1.619216367E1,-1.782642975E0,-1.370564896E1,9.635462952E-1,1.385464004E1
1.620220667E1,-2.528392181E0,-1.477742020E1,1.347946930E0,1.505263683E1
1.621225067E1,-3.731141052E0,-1.611174545E1,1.103654938E0,1.657491506E1
1.622229367E1,-3.495381317E0,-1.671349411E1,-4.098477173E-1,1.708000442E1
1.623233667E1,-2.517614594E0,-1.645962204E1,-2.246528320E0,1.680191746E1
1.624237967E1,-1.200802917E0,-1.566357742E1,-3.879183197E0,1.618139820E1
1.625242312E1,7.752378845E-1,-1.449241287E1,-4.980293427E0,1.534387002E1
1.626246613E1,2.862497406E0,-1.283311340E1,-5.158123627E0,1.412405503E1
1.627250913E1,4.647086334E0,-1.069271439E1,-3.482657776E0,1.216792741E1
1.628255213E1,6.725214844E0,-9.066346436E0,-1.020278320E0,1.133437781E1
1.629259613E1,8.264613647E0,-7.551795959E0,9.680369568E-1,1.123701724E1
1.630263913E1,8.785380707E0,-6.900799713E0,1.207538910E0,1.123664100E1
1.631268213E1,4.437372437E0,-7.129973145E0,2.635419617E0,8.801830931E0
1.632272513E1,1.499880981E0,-7.382048950E0,2.871329041E0,8.061564372E0
1.633276812E1,-2.302212524E-1,-7.479496307E0,1.677561493E0,7.668773005E0
1.634281113E1,-1.875150604E0,-7.379504242E0,1.293759613E0,7.723152632E0
1.635285412E1,-2.932102661E0,-7.353608093E0,2.185455322E0,8.212733587E0
1.636289713E1,-2.525997162E0,-7.647596741E0,2.835852814E0,8.538645018E0
1.637294113E1,-1.998943176E0,-8.065677338E0,2.287243652E0,8.618724283E0
1.638298412E1,-3.273692322E-1,-8.463250580E0,1.821861420E0,8.663311147E0
1.639302713E1,9.946815491E-1,-8.851393433E0,1.308429108E0,9.002696475E0
1.640307013E1,1.179397430E0,-9.779014435E0,8.595126343E-1,9.887308207E0
1.641311313E1,1.536854095E0,-1.028421387E1,5.173242188E-1,1.041127272E1
1.642315613E1,1.712139587E0,-9.899663544E0,5.968089294E-1,1.006434007E1
1.643319913E1,8.006849670E-1,-9.840237122E0,1.011296997E0,9.924418605E0
1.644324213E1,-1.152603149E-2,-9.413773956E0,1.514849854E0,9.534885580E0
1.645328613E1,-4.430786133E-1,-9.051527252E0,1.512305145E0,9.187683664E0
1.646332913E1,-8.020321655E-1,-8.746611328E0,1.654060364E0,8.937694390E0
1.647337213E1,-8.653504944E-1,-8.540489960E0,1.871109009E0,8.785775387E0
1.648341512E1,-5.575904846E-1,-8.505911865E0,1.884580994E0,8.730010844E0
1.649345813E1,-1.004411316E-1,-8.480913849E0,1.749262390E0,8.660017728E0
1.650350113E1,4.580474854E-1,-8.407266998E0,2.103425903E0,8.678499087E0
1.651354413E1,1.220262451E0,-8.245453491E0,2.639910278E0,8.743321451E0
1.652358813E1,1.891915741E0,-8.015681305E0,2.805615692E0,8.700687982E0
1.653363112E1,2.279310150E0,-7.904013519E0,2.808310089E0,8.692254600E0
1.654367413E1,2.619402924E0,-7.726632385E0,2.943329315E0,8.673252397E0
1.655371713E1,2.997965698E0,-7.552394714E0,3.073857880E0,8.687638719E0
1.656376013E1,3.088078308E0,-7.499105530E0,3.176244965E0,8.709841759E0
1.657380313E1,3.001707916E0,-7.368876343E0,3.294049988E0,8.611698688E0
1.658384612E1,2.653981018E0,-7.580386505E0,3.026107178E0,8.582726808E0
1.659389013E1,2.398612061E0,-7.923622742E0,2.975961456E0,8.797356635E0
1.660393313E1,2.334395599E0,-8.325536957E0,3.404669952E0,9.292779235E0
1.661397612E1,2.328557739E0,-8.727750549E0,4.186045074E0,9.955841710E0
1.662401913E1,2.116897888E0,-9.411378937E0,4.946463776E0,1.084079398E1
1.663406212E1,2.228565674E0,-1.002300705E1,5.817502441E0,1.180129272E1
