"Time (s)","Acceleration x (m/s^2)","Acceleration y (m/s^2)","Acceleration z (m/s^2)","Absolute acceleration (m/s^2)"
2.606583352E-3,-1.967358856E0,5.695356445E0,5.630690918E0,8.246954961E0
1.264958334E-2,-2.738405457E0,5.971981201E0,5.095553741E0,8.314330511E0
2.269258333E-2,-2.519859924E0,6.014941864E0,5.157973938E0,8.314680680E0
3.273558334E-2,-1.963466949E0,6.173462219E0,5.757028198E0,8.666614789E0
4.277858333E-2,-1.932930450E0,6.274951172E0,6.689738617E0,9.373571096E0
5.282158335E-2,-2.055525513E0,6.324049072E0,7.633526001E0,1.012370984E1
6.286458333E-2,-2.082319794E0,6.264772339E0,8.197403412E0,1.052524826E1
7.290758335E-2,-2.052082672E0,6.145320740E0,8.287665710E0,1.051957286E1
8.295058334E-2,-1.994003448E0,6.102210388E0,8.111182709E0,1.034428858E1
9.299358333E-2,-1.854493561E0,6.041287079E0,7.672894135E0,9.940301823E0
1.030365833E-1,-1.760339355E0,6.009553070E0,7.256759491E0,9.585096820E0
1.130795833E-1,-1.763782196E0,5.985303497E0,7.193740540E0,9.522850862E0
1.231225833E-1,-2.056872711E0,6.075565796E0,7.497009888E0,9.866528384E0
1.331655833E-1,-2.289039917E0,6.214626617E0,8.058941345E0,1.043109886E1
1.432085834E-1,-2.234104156E0,6.344706116E0,8.452323303E0,1.080223525E1
1.532515833E-1,-1.936972046E0,6.215674438E0,8.518485718E0,1.072152360E1
1.632945833E-1,-1.566492462E0,6.215075684E0,8.633296967E0,1.075243604E1
1.733375833E-1,-1.401984558E0,6.305936737E0,9.009165344E0,1.108582243E1
1.833805833E-1,-1.118623810E0,6.373895416E0,9.501042480E0,1.149555002E1
1.934235833E-1,-7.587721252E-1,6.508764954E0,1.010593460E1,1.204448714E1
2.034665833E-1,-5.873785400E-1,6.530020752E0,1.034169434E1,1.224486939E1
2.135095834E-1,-4.031117249E-1,6.233038330E0,1.003737717E1,1.182210668E1
2.235515833E-1,-5.197192383E-1,5.935906219E0,9.913584595E0,1.156651418E1
2.335945833E-1,-7.397616577E-1,5.767656097E0,1.011476624E1,1.166711619E1
2.436375833E-1,-8.321195984E-1,5.554798737E0,1.039438477E1,1.181488242E1
2.536805834E-1,-9.677375793E-1,5.406756592E0,1.068882248E1,1.201750635E1
2.637235833E-1,-1.088237000E0,5.367687836E0,1.107397156E1,1.235431821E1
2.737665833E-1,-1.000070343E0,5.340594177E0,1.146435974E1,1.268675022E1
2.838095833E-1,-9.852511597E-1,5.312153320E0,1.177047318E1,1.295120579E1
2.938525833E-1,-1.098266144E0,5.200335846E0,1.192839478E1,1.305895414E1
3.038955833E-1,-7.954458618E-1,4.973258057E0,1.174876831E1,1.278278478E1
3.139385833E-1,5.912704468E-2,4.732558594E0,1.092847412E1,1.190933052E1
3.239815834E-1,6.463558960E-1,4.637955322E0,9.979896698E0,1.102391689E1
3.340245833E-1,6.533912659E-1,4.702321472E0,9.377998352E0,1.051121308E1
3.440675833E-1,2.805166626E-1,4.767885132E0,9.068891144E0,1.024969291E1
3.541105833E-1,-3.338058472E-2,4.678820343E0,8.855285339E0,1.001541574E1
3.641535833E-1,-1.766326904E-1,4.636907501E0,8.956325226E0,1.008701501E1
3.741965833E-1,-4.300556946E-1,4.972808990E0,9.113348694E0,1.039071227E1
3.842395833E-1,-5.292993164E-1,4.608316956E0,8.936416626E0,1.006857910E1
3.942825834E-1,-2.080673218E-1,4.332740021E0,8.332871704E0,9.394289698E0
4.043255833E-1,1.417552185E-1,4.318818970E0,7.404951324E0,8.573540456E0
4.143685833E-1,1.785786438E-1,4.422702942E0,6.564299469E0,7.917210314E0
4.244115833E-1,-1.609153748E-1,4.297862549E0,6.237528992E0,7.576561500E0
4.344545833E-1,-3.610491943E-1,4.156107330E0,6.368506622E0,7.613242493E0
4.444975833E-1,-3.483256531E-1,4.143982544E0,6.789880371E0,7.962185475E0
4.545405833E-1,-1.347198486E-2,4.284240875E0,7.252717896E0,8.423587018E0
4.645835834E-1,3.781137085E-1,4.480333099E0,7.736811218E0,8.948441344E0
4.746265833E-1,5.769003296E-1,4.513713684E0,7.874524841E0,9.094754900E0
4.846695833E-1,7.819738770E-1,4.346361694E0,7.546556854E0,8.743732811E0
4.947125833E-1,1.013093262E0,4.191134491E0,7.035369873E0,8.251569277E0
5.047555833E-1,1.215622101E0,4.162543945E0,6.332431641E0,7.674907144E0
5.147985833E-1,1.123713226E0,4.132755890E0,5.788313141E0,7.200484128E0
5.248415833E-1,7.247927856E-1,4.196822662E0,5.776787109E0,7.177040779E0
5.348835833E-1,1.595681763E-1,4.482129364E0,6.001619568E0,7.492288240E0
5.449265833E-1,-6.511459351E-2,4.993615723E0,5.952371979E0,7.769888678E0
5.549695833E-1,-1.645079041E-1,5.262306976E0,5.859115906E0,7.877066507E0
5.650125833E-1,-1.329235840E-1,5.396428070E0,5.846392365E0,7.957349325E0
5.750555834E-1,-8.083190918E-2,5.527854767E0,5.758674774E0,7.982859593E0
5.850985833E-1,-1.422042847E-2,5.524860992E0,5.700146484E0,7.938259327E0
5.951415833E-1,6.795867920E-2,5.555547180E0,5.867049408E0,8.080284129E0
6.051845833E-1,1.877096558E-1,5.652096405E0,6.174809418E0,8.373153530E0
6.152275833E-1,9.924362183E-2,5.651497650E0,6.662345581E0,8.737054631E0
6.252705833E-1,-1.182540894E-2,5.870492249E0,6.931785278E0,9.083637279E0
6.353135833E-1,-2.023791504E-1,6.297853546E0,6.705006866E0,9.201143064E0
6.453565834E-1,-3.775149536E-1,6.514303436E0,6.320905609E0,9.084740751E0
6.553995833E-1,-4.197271729E-1,6.607709198E0,6.020031281E0,8.948674112E0
6.654425833E-1,-3.345542908E-1,6.673422546E0,5.931415558E0,8.934662029E0
6.754855833E-1,-9.924362183E-2,6.760092316E0,5.995332642E0,9.036188959E0
6.855285833E-1,3.817062378E-2,6.851701813E0,6.157894592E0,9.212325468E0
6.955715833E-1,1.692979431E-1,6.909032593E0,6.441554718E0,9.447593363E0
7.056145833E-1,3.576063538E-1,6.888525238E0,6.896009674E0,9.753697334E0
7.156575834E-1,4.941224670E-1,6.906936951E0,7.488178253E0,1.019915431E1
7.257005833E-1,5.230123901E-1,6.982230377E0,8.070317688E0,1.068433950E1
7.357435833E-1,2.454895020E-1,6.961872711E0,8.833730164E0,1.125001002E1
7.457865833E-1,-1.826202393E-2,7.019802246E0,9.506281586E0,1.181724785E1
7.558295833E-1,-8.502319336E-2,6.996301117E0,9.891131287E0,1.211568968E1
7.658725833E-1,1.248403931E-1,6.933581543E0,9.839039612E0,1.203731027E1
7.759145833E-1,3.224295044E-1,6.889872437E0,9.419162750E0,1.167454196E1
7.859575833E-1,2.871029663E-1,6.815926208E0,9.066945190E0,1.134675166E1
7.960005833E-1,-9.430389404E-2,6.592440948E0,8.954379272E0,1.111980571E1
8.060435833E-1,-3.809577942E-1,6.505771179E0,9.082063751E0,1.117828562E1
8.160865833E-1,-5.442681885E-1,6.573580170E0,9.273365936E0,1.137996045E1
8.261295834E-1,-6.827302551E-1,6.661597137E0,9.528884583E0,1.164657196E1
8.361725833E-1,-8.074209595E-1,6.729406128E0,9.712702332E0,1.184370812E1
8.462155833E-1,-8.771759033E-1,6.744075623E0,9.743538208E0,1.188227800E1
8.562585833E-1,-8.906478882E-1,6.723418579E0,9.630074158E0,1.177862213E1
8.663015833E-1,-9.210346985E-1,6.628366241E0,9.483828278E0,1.160717635E1
8.763435833E-1,-1.041384430E0,6.376290436E0,9.397906952E0,1.140448229E1
8.863865833E-1,-1.081051941E0,5.985902252E0,9.388027496E0,1.118636489E1
8.964295833E-1,-8.264314270E-1,5.503455505E0,9.871671753E0,1.133229520E1
9.064725833E-1,-4.263134766E-1,4.847070465E0,1.070663544E1,1.176043697E1
9.165155833E-1,-1.721420288E-2,4.203109589E0,1.157752441E1,1.231687859E1
9.265585833E-1,1.562750244E-1,3.813020782E0,1.202000427E1,1.261126687E1
9.366015834E-1,6.571334839E-2,3.587290192E0,1.161659317E1,1.215805108E1
9.466445833E-1,1.842668152E-1,3.611689453E0,1.060035645E1,1.120025945E1
9.566875833E-1,4.233197021E-1,3.735931091E0,9.365723877E0,1.009223288E1
9.667305833E-1,2.408491516E-1,3.892804871E0,8.002658386E0,8.902498488E0
9.767735833E-1,3.697311401E-1,4.211492157E0,7.491172028E0,8.601803628E0
9.868165833E-1,9.102571106E-1,4.425996094E0,7.711962891E0,8.938253803E0
9.968595833E-1,9.946815491E-1,4.219425659E0,7.953410797E0,9.058128261E0
1.006902583E0,1.232237549E0,3.933220825E0,8.553512878E0,9.494799524E0
1.016945583E0,1.227447510E0,3.790417786E0,9.295819244E0,1.011366154E1
1.026988583E0,1.774110718E0,3.666774902E0,9.605974274E0,1.043395653E1
1.037031583E0,2.129172363E0,3.420836334E0,9.429042206E0,1.025389356E1
1.047074583E0,2.136656799E0,3.177592163E0,8.701255646E0,9.506536911E0
1.057117583E0,1.870360565E0,3.137774963E0,7.915689240E0,8.717913541E0
1.067160583E0,1.577419739E0,3.341201935E0,6.891069946E0,7.819125808E0
1.077203583E0,1.042282562E0,3.599265289E0,7.768694916E0,8.625177346E0
1.087246583E0,6.515950012E-1,3.656745758E0,9.038204956E0,9.771668968E0
1.097289583E0,4.188290405E-1,3.598217468E0,8.718918915E0,9.441511201E0
1.107332583E0,3.174897766E-1,3.767665100E0,8.519982605E0,9.321276933E0
1.117375583E0,4.336482239E-1,3.956272888E0,8.334069214E0,9.235629681E0
1.127418583E0,1.609153748E-1,4.208049316E0,7.648943939E0,8.731547182E0
1.137461583E0,3.393443298E-1,4.237837372E0,7.057972870E0,8.239502485E0
1.147504583E0,7.228468323E-1,4.048780518E0,6.904691620E0,8.036784033E0
1.157547583E0,7.837701416E-1,4.068988495E0,7.037465515E0,8.166816019E0
1.167590583E0,5.655239868E-1,4.211342468E0,7.089257813E0,8.265155721E0
1.177633583E0,2.933898926E-1,4.170627136E0,7.181466064E0,8.309853379E0
1.187676583E0,1.721420288E-1,3.968397675E0,7.605085144E0,8.579926167E0
1.197718583E0,4.505630493E-2,3.732488251E0,8.050858154E0,8.874109287E0
1.207761583E0,-1.299298096E-1,3.616030426E0,8.381370850E0,9.129070879E0
1.217804583E0,-3.357518005E-1,3.633244629E0,8.306975555E0,9.072984001E0
1.227847583E0,-4.293072510E-1,3.637286224E0,7.951015778E0,8.754016660E0
1.237890583E0,-3.841012573E-1,3.760180664E0,7.657625885E0,8.539656117E0
1.247933583E0,-2.887495422E-1,4.010759583E0,7.408992920E0,8.429872171E0
1.257976583E0,-2.847079468E-1,4.266727295E0,7.256460114E0,8.422721283E0
1.268019583E0,-2.487826538E-1,4.441414032E0,7.376510468E0,8.613997800E0
1.278062583E0,-2.730322266E-1,4.629872131E0,7.726782074E0,9.011849076E0
1.288105583E0,-4.478686523E-1,4.683011627E0,7.789801025E0,9.100120013E0
1.298148583E0,-6.773414612E-1,4.530927887E0,7.409142609E0,8.711113199E0
1.308191583E0,-1.097667389E0,4.374203796E0,7.093449097E0,8.405685733E0
1.318234583E0,-1.573976898E0,4.408482513E0,7.216642914E0,8.601863536E0
1.328277583E0,-1.741328888E0,4.552632751E0,7.457641754E0,8.909271115E0
1.338320583E0,-1.493594055E0,4.788841553E0,7.620952148E0,9.123745846E0
1.348363583E0,-9.575587463E-1,5.155429230E0,7.789052582E0,9.389606457E0
1.358406583E0,-4.502636719E-1,5.469625854E0,8.053552551E0,9.745729991E0
1.368449583E0,-2.555186462E-1,5.583538971E0,8.433013458E0,1.011715934E1
1.378492583E0,-1.098715210E-1,5.427114258E0,9.069040833E0,1.056944381E1
1.388535583E0,-2.097138977E-1,5.386847992E0,9.747579803E0,1.113900459E1
1.398578583E0,-3.537144470E-1,5.511538696E0,1.006207581E1,1.147813322E1
1.408621583E0,-2.724334717E-2,5.280269623E0,1.032193542E1,1.159415113E1
1.418664583E0,3.622467041E-2,5.248834991E0,1.047596512E1,1.171739844E1
1.428707583E0,-4.370910645E-2,5.361101532E0,1.055574921E1,1.183922132E1
1.438750583E0,-3.607498169E-2,5.437442780E0,1.060379929E1,1.191669605E1
1.448793583E0,-2.477348328E-1,5.687123566E0,1.018077896E1,1.166417624E1
1.458836583E0,-2.633024597E-1,5.774242401E0,9.765692139E0,1.134812524E1
1.468879583E0,-2.258802795E-1,5.796995087E0,9.612261200E0,1.122727658E1
1.478922583E0,-1.721420288E-1,5.709277496E0,9.639803925E0,1.120496774E1
1.488965583E0,2.993774414E-4,5.391937408E0,9.718689880E0,1.111422161E1
1.499008583E0,2.721340942E-1,4.841831360E0,9.790989532E0,1.092615504E1
1.509051583E0,4.120930481E-1,4.392914886E0,9.878258057E0,1.081884948E1
1.519094583E0,5.643264771E-1,4.127816162E0,1.010773087E1,1.093268283E1
1.529137583E0,5.478607178E-1,3.949237518E0,1.059616516E1,1.132145505E1
1.539179583E0,2.757266235E-1,3.708388367E0,1.129625931E1,1.189258777E1
1.549222583E0,-5.014572144E-2,3.350931702E0,1.218301529E1,1.263554983E1
1.559265583E0,-1.514849854E-1,3.052602081E0,1.293774582E1,1.329385550E1
1.569308583E0,-4.086502075E-2,2.982547760E0,1.305031174E1,1.338685540E1
1.579351583E0,1.207987976E-1,3.172502747E0,1.247999771E1,1.287748845E1
1.589394583E0,3.743714905E-1,3.537593536E0,1.149893784E1,1.203662301E1
1.599437583E0,6.999444580E-1,3.908073120E0,1.043390259E1,1.116374852E1
1.609480583E0,1.032103729E0,4.102069702E0,9.576335907E0,1.046892656E1
1.619523583E0,1.162033539E0,4.130660248E0,9.048832855E0,1.001469181E1
1.629566583E0,1.219813385E0,4.025129700E0,8.743916931E0,9.702870559E0
1.639609583E0,1.317709808E0,3.915856934E0,8.512049103E0,9.461779674E0
1.649652583E0,1.439107361E0,3.913312225E0,8.243357849E0,9.237856418E0
1.659695583E0,1.679357758E0,4.022135925E0,7.947872314E0,9.064573581E0
1.669738583E0,1.633403320E0,4.081262970E0,7.857011261E0,9.003184980E0
1.679781583E0,1.573378143E0,4.062402191E0,7.936495972E0,9.053540669E0
1.689824583E0,1.344653778E0,3.934118958E0,7.611222382E0,8.672721136E0
1.699867583E0,9.286688232E-1,3.597319336E0,7.046746216E0,7.966163720E0
1.709910583E0,6.822811890E-1,3.333567810E0,6.475384369E0,7.314969904E0
1.719953583E0,4.249662781E-1,3.236120453E0,6.258635101E0,7.058582383E0
1.729996583E0,1.227447510E-1,3.155438232E0,6.435118103E0,7.168165854E0
1.740039583E0,-2.348616028E-1,3.003953247E0,6.800807648E0,7.438405726E0
1.750082583E0,-4.360432434E-1,2.889141998E0,7.060816956E0,7.641492739E0
1.760125583E0,-6.391708374E-1,2.951412506E0,7.101981354E0,7.717351507E0
1.770169292E0,-6.506968689E-1,3.161725159E0,6.937473450E0,7.651695907E0
1.780212292E0,-5.093907166E-1,3.477418671E0,6.702013092E0,7.567621753E0
1.790255292E0,-3.429368591E-1,3.764371948E0,6.727310486E0,7.716528250E0
1.800298292E0,-3.504212952E-1,3.937561798E0,7.002288666E0,8.041096602E0
1.810341292E0,-2.890489197E-1,4.057462463E0,7.423063660E0,8.464539268E0
1.820384292E0,-1.362167358E-1,4.152065735E0,7.759563904E0,8.801649666E0
1.830427292E0,1.661544800E-2,4.193978577E0,7.935448151E0,8.975581860E0
1.840470292E0,7.813751221E-2,4.309089203E0,8.008196869E0,9.094260405E0
1.850513292E0,-4.266128540E-2,4.359983368E0,7.909851379E0,9.031999989E0
1.860556292E0,-1.423539734E-1,4.344415741E0,7.836204529E0,8.961044258E0
1.870598292E0,-1.022373962E-1,4.400698700E0,7.903863831E0,9.046969934E0
1.880641292E0,-4.490661621E-4,4.611011353E0,7.983947296E0,9.219806957E0
1.890684292E0,-4.430786133E-2,4.886288910E0,8.059989166E0,9.425561408E0
1.900727292E0,-8.412506104E-2,5.161267090E0,7.976612549E0,9.501163232E0
1.910770292E0,5.508544922E-2,5.346731415E0,7.809110870E0,9.464289927E0
1.920813292E0,2.360591125E-1,5.491031342E0,7.673043823E0,9.438365887E0
1.930856292E0,4.562512207E-1,5.640720062E0,7.726782074E0,9.577528346E0
1.940899292E0,4.796026611E-1,5.722001038E0,8.046966248E0,9.885594589E0
1.950942292E0,2.683918762E-1,5.606591034E0,8.319998474E0,1.003634753E1
1.960985292E0,-6.391708374E-2,5.376070404E0,8.523874512E0,1.007782988E1
1.971028292E0,-2.743794250E-1,5.183570709E0,8.679850159E0,1.011357939E1
1.981071292E0,-3.418890381E-1,5.104984131E0,8.818461914E0,1.019524505E1
1.991114292E0,-3.899391174E-1,5.175188141E0,9.061706085E0,1.044265972E1
2.001157292E0,-4.929249573E-1,5.229076080E0,9.264983368E0,1.065017035E1
2.011200292E0,-5.128335571E-1,5.182672577E0,9.383836212E0,1.073217011E1
2.021243292E0,-5.439688110E-1,5.156926117E0,9.411828003E0,1.074580362E1
2.031286292E0,-6.078858948E-1,5.114264832E0,9.405840454E0,1.072357518E1
2.041329292E0,-5.477110291E-1,5.094356232E0,9.459129639E0,1.075767569E1
2.051372292E0,-5.204676819E-1,5.246739349E0,9.838291168E0,1.116203985E1
2.061415292E0,-6.427633667E-1,5.422174530E0,1.016865417E1,1.154186506E1
2.071458292E0,-7.246430969E-1,5.509742432E0,1.020338196E1,1.161857877E1
2.081501292E0,-8.397537231E-1,5.669609985E0,1.006985962E1,1.158670516E1
2.091544292E0,-9.360035706E-1,5.895340576E0,9.929301910E0,1.158542963E1
2.101587292E0,-7.725434875E-1,6.035748596E0,9.826166382E0,1.155770870E1
2.111630292E0,-2.556683350E-1,6.012696533E0,9.876312103E0,1.156544105E1
2.121673292E0,9.909393311E-2,5.854325867E0,1.020577698E1,1.176608833E1
2.131716292E0,-8.891510010E-2,5.388344879E0,1.083821182E1,1.210409030E1
2.141759292E0,-5.138813782E-1,4.451592865E0,1.138517441E1,1.223531566E1
2.151802292E0,-1.023870850E0,3.483106842E0,1.162003601E1,1.217397148E1
2.161845292E0,-1.359622650E0,2.826272736E0,1.149235153E1,1.191262083E1
2.171888292E0,-1.256936188E0,2.590363312E0,1.096245346E1,1.133425148E1
2.181931292E0,-8.916957092E-1,2.833457794E0,1.010114456E1,1.052885206E1
2.191974292E0,-5.834866333E-1,3.389252014E0,9.220226440E0,9.840734804E0
2.202017292E0,-2.167492676E-1,3.808979187E0,8.683592377E0,9.484728739E0
2.212060292E0,1.017883301E-2,3.911815338E0,8.504564667E0,9.361090910E0
2.222102292E0,-5.463638306E-2,3.689976654E0,8.681646423E0,9.433445683E0
2.232145292E0,-3.146456909E-1,3.222648468E0,9.186546478E0,9.740487732E0
2.242188292E0,-5.472619629E-1,2.754721527E0,9.755064240E0,1.015131837E1
2.252231292E0,-6.093827820E-1,2.474204865E0,1.010099487E1,1.041744376E1
2.262274292E0,-5.384303284E-1,2.355501709E0,1.005968079E1,1.034579494E1
2.272317292E0,-2.454895020E-1,2.417622528E0,9.727222137E0,1.002616648E1
2.282360292E0,6.107299805E-2,2.638862457E0,9.297914886E0,9.665327010E0
2.292403292E0,2.704875183E-1,2.964136047E0,8.797056427E0,9.286951480E0
2.302446292E0,3.553610229E-1,3.227438507E0,8.212072906E0,8.830672805E0
2.312489292E0,3.809577942E-1,3.355272675E0,7.614365845E0,8.329558859E0
2.322532292E0,3.441343689E-1,3.418441315E0,7.198680267E0,7.976538540E0
2.332575292E0,2.384541321E-1,3.528761902E0,7.062313843E0,7.898436412E0
2.342618292E0,1.571731567E-1,3.651506653E0,7.200775909E0,8.075232377E0
2.352661292E0,9.131011963E-2,3.757635956E0,7.443271637E0,8.338492560E0
2.362704292E0,-1.047821045E-2,3.913761292E0,7.653584290E0,8.596219501E0
2.372747292E0,-1.315763855E-1,4.010609894E0,7.492219849E0,8.499156566E0
2.382790292E0,-1.851649475E-1,3.998934174E0,7.121740265E0,8.169757951E0
2.392833292E0,-2.215393066E-1,4.117188263E0,6.953789520E0,8.084275326E0
2.402876292E0,-2.471360779E-1,4.176015930E0,7.011569366E0,8.164697806E0
2.412919292E0,-3.580554199E-1,4.102668457E0,7.094496918E0,8.203168819E0
2.422962292E0,-6.420149231E-1,3.890858917E0,7.144642639E0,8.160691436E0
2.433005292E0,-8.988807678E-1,3.656596069E0,7.362589417E0,8.269607268E0
2.443048292E0,-9.891430664E-1,3.544329529E0,7.727829895E0,8.559207364E0
2.453091292E0,-9.774673462E-1,3.605103149E0,8.146209869E0,8.961749069E0
2.463134292E0,-8.101153564E-1,3.780837708E0,8.414901123E0,9.260754914E0
2.473177292E0,-5.016069031E-1,4.065545654E0,8.522527313E0,9.455884028E0
2.483220292E0,-3.113525391E-1,4.398752747E0,8.677455139E0,9.733662919E0
2.493263292E0,-9.804611206E-2,4.672084351E0,8.851692810E0,1.000951801E1
2.503306292E0,-6.286926270E-3,4.810546417E0,8.716374207E0,9.955730795E0
2.513349292E0,3.143463135E-3,4.877457275E0,8.384813690E0,9.700242264E0
2.523392292E0,-6.571334839E-2,4.976102142E0,8.155490570E0,9.553948776E0
2.533435292E0,-1.055305481E-1,5.054539032E0,8.142767029E0,9.584579094E0
2.543478292E0,2.619552612E-2,5.123246155E0,8.242459717E0,9.704971899E0
2.553521292E0,6.077362061E-2,5.243296509E0,8.444090424E0,9.939744202E0
2.563564292E0,-2.544708252E-3,5.339097290E0,8.767418060E0,1.026516370E1
2.573607292E0,-7.978408813E-2,5.228327637E0,9.218879242E0,1.059856169E1
2.583649292E0,-2.016307068E-1,4.991071014E0,9.618548126E0,1.083826152E1
2.593692292E0,-2.793191528E-1,4.740492096E0,9.807904358E0,1.089703044E1
2.603735292E0,-2.240840149E-1,4.537663879E0,9.796078949E0,1.079832255E1
2.613778292E0,-3.424877930E-1,4.454886017E0,9.798623657E0,1.076923084E1
2.623821292E0,-4.248165894E-1,4.341272278E0,9.915530548E0,1.083258326E1
2.633864292E0,-5.522016907E-1,4.177213440E0,1.016326538E1,1.100209080E1
2.643907292E0,-7.518864441E-1,4.076023865E0,1.042058029E1,1.121462426E1
2.653950292E0,-7.560777283E-1,4.127217407E0,1.050111282E1,1.130835742E1
2.663993292E0,-4.382885742E-1,4.384382629E0,1.052775742E1,1.141265018E1
2.674036292E0,-1.887574768E-1,4.792134705E0,1.062759979E1,1.165959098E1
2.684079292E0,7.484436035E-4,5.236111450E0,1.055889267E1,1.178588470E1
2.694122292E0,3.528163147E-1,5.731581116E0,1.022448807E1,1.172670703E1
2.704165292E0,6.917115784E-1,6.230493622E0,9.644444275E0,1.150273103E1
2.714208292E0,9.768685913E-1,6.502478027E0,8.983418884E0,1.113275831E1
2.724251292E0,1.286125488E0,6.265670471E0,8.637039185E0,1.074761327E1
2.734294292E0,1.094074860E0,5.649701385E0,8.810229034E0,1.052312982E1
2.744337292E0,-5.685177612E-1,5.796246643E0,8.643475800E0,1.042254103E1
2.754380292E0,-1.098864899E0,4.209845581E0,9.474547577E0,1.042580240E1
2.764423292E0,-1.831291809E0,2.674188995E0,1.031894165E1,1.081598231E1
2.774466542E0,-2.444566498E0,2.109114075E0,1.087728058E1,1.134634304E1
2.784509542E0,-2.265239410E0,2.021097107E0,1.083282303E1,1.125016435E1
2.794552542E0,-1.431622925E0,2.254162445E0,1.054916290E1,1.088189462E1
2.804595542E0,-5.358856201E-1,2.847229156E0,1.016625916E1,1.057103176E1
2.814638542E0,7.738906860E-2,3.326981506E0,9.604776764E0,1.016496590E1
2.824681542E0,4.137396240E-1,3.498973846E0,9.026678925E0,9.689939673E0
2.834724542E0,5.399272156E-1,3.511098633E0,8.570727081E0,9.277752837E0
2.844767542E0,7.999365234E-1,3.669768677E0,8.638536072E0,9.419734924E0
2.854810542E0,1.136436768E0,3.919898529E0,9.015901337E0,9.896644377E0
2.864853542E0,1.113684082E0,4.040847015E0,8.958271179E0,9.890366998E0
2.874896542E0,8.653504944E-1,3.967050476E0,8.521928558E0,9.439787461E0
2.884939542E0,4.653822327E-1,3.865711212E0,7.975265350E0,8.874973871E0
2.894982542E0,1.646575928E-2,3.724255371E0,7.504494324E0,8.377815004E0
2.905025542E0,-1.381626892E-1,3.599564667E0,7.151678009E0,8.007649659E0
2.915068542E0,-2.183958435E-1,3.587888947E0,6.935826874E0,7.811935628E0
2.925111542E0,-2.330653381E-1,3.592379608E0,6.825057220E0,7.716276094E0
2.935153542E0,-3.318598938E-1,3.525019684E0,6.734944611E0,7.608900950E0
2.945196542E0,-5.944139099E-1,3.272494812E0,6.633605347E0,7.420732449E0
2.955239542E0,-8.547225952E-1,2.943029938E0,6.599176941E0,7.276064336E0
2.965282542E0,-1.033001862E0,2.771786041E0,7.001390533E0,7.600615772E0
2.975325542E0,-1.005608826E0,2.834655304E0,7.796237640E0,8.356305472E0
2.985368542E0,-9.171427917E-1,2.963088226E0,8.386310577E0,8.941546166E0
2.995411542E0,-8.629554749E-1,3.095862122E0,8.441246338E0,9.032369244E0
3.005454542E0,-8.885522461E-1,3.321742401E0,7.979007568E0,8.688386470E0
3.015497542E0,-9.183403015E-1,3.549119568E0,7.457342377E0,8.309726466E0
3.025540542E0,-8.904981995E-1,3.832180939E0,7.115153961E0,8.130437484E0
3.035583542E0,-8.346643066E-1,4.104315033E0,6.991511078E0,8.150048684E0
3.045626542E0,-8.228388977E-1,4.309687958E0,7.020700378E0,8.278931570E0
3.055669542E0,-8.493338013E-1,4.408183136E0,7.034471741E0,8.344892997E0
3.065712542E0,-8.672964478E-1,4.490661621E0,7.001689911E0,8.363127796E0
3.075755542E0,-8.744815063E-1,4.645589447E0,7.060517578E0,8.496889295E0
3.085798542E0,-7.946974182E-1,4.789589996E0,7.281308441E0,8.751523806E0
3.095841542E0,-6.239025879E-1,4.959636383E0,7.580835571E0,9.080545989E0
3.105884542E0,-5.592370605E-1,5.132526855E0,7.765850830E0,9.325449969E0
3.115927542E0,-6.010002136E-1,5.299878845E0,7.849975891E0,9.490628985E0
3.125970542E0,-5.195695496E-1,5.444478149E0,7.742349701E0,9.479254914E0
3.136013542E0,-4.399351501E-1,5.584886169E0,7.495063934E0,9.357375692E0
3.146056542E0,-4.465214539E-1,5.738167419E0,7.401957550E0,9.376295767E0
3.156099542E0,-4.803511047E-1,5.813011780E0,7.601342926E0,9.581349457E0
3.166142542E0,-5.348377991E-1,5.773643646E0,8.197104034E0,1.004059396E1
3.176185542E0,-7.006929016E-1,5.584137726E0,8.991951141E0,1.060795692E1
3.186228542E0,-7.707472229E-1,5.230722656E0,9.838889923E0,1.116952397E1
3.196271542E0,-7.023394775E-1,4.900509338E0,1.060290115E1,1.170170011E1
3.206314542E0,-6.451583862E-1,4.649780731E0,1.078207855E1,1.175967296E1
3.216357542E0,-7.527845764E-1,4.380790100E0,1.063777863E1,1.152910840E1
3.226400542E0,-9.795629883E-1,4.168681183E0,1.053883438E1,1.137560884E1
3.236443542E0,-1.273851013E0,4.207001495E0,1.062146255E1,1.149508698E1
3.246486542E0,-1.390608215E0,4.594994659E0,1.078402451E1,1.180436155E1
3.256529542E0,-1.444346466E0,5.181175690E0,1.076830719E1,1.203690816E1
3.266572542E0,-1.547332306E0,5.689668274E0,1.061712158E1,1.214453923E1
3.276615542E0,-1.551972656E0,6.016139374E0,1.048838928E1,1.219052344E1
3.286658542E0,-1.547931061E0,5.851631470E0,1.052356613E1,1.214014520E1
3.296701542E0,-1.817969513E0,5.122797089E0,1.089479416E1,1.217557403E1
3.306743542E0,-2.113005981E0,4.063300323E0,1.194920151E1,1.279682072E1
3.316787542E0,-2.300565948E0,3.072211304E0,1.304641983E1,1.359927044E1
3.326829542E0,-2.286644897E0,2.367925873E0,1.333337311E1,1.373370512E1
3.336872542E0,-1.863474884E0,2.133962402E0,1.264705032E1,1.296048672E1
3.346915542E0,-1.256786499E0,2.348765717E0,1.137559433E1,1.168333681E1
3.356958542E0,-7.717950439E-1,2.740650787E0,1.013886612E1,1.053107025E1
3.367001542E0,-6.252497864E-1,3.184926910E0,9.350755005E0,9.898046064E0
3.377044542E0,-7.738906860E-1,3.386108551E0,9.246122589E0,9.877014774E0
3.387087542E0,-8.846603394E-1,3.195704498E0,9.671687622E0,1.022431869E1
3.397130542E0,-1.028810577E0,2.791994019E0,1.038869659E1,1.080641933E1
3.407173542E0,-1.049018555E0,2.386786652E0,1.099433716E1,1.129923183E1
3.417216542E0,-9.509724426E-1,2.068548431E0,1.104538101E1,1.127757434E1
3.427259542E0,-7.453001404E-1,1.956880646E0,1.060514648E1,1.080990223E1
3.437302542E0,-4.379891968E-1,2.134860535E0,9.959988098E0,1.019562784E1
3.447345542E0,-8.681945801E-2,2.444416809E0,9.238787842E0,9.557087001E0
3.457388542E0,2.052232361E-1,2.677482147E0,8.619076538E0,9.027707771E0
3.467431542E0,3.785627747E-1,2.801424408E0,8.126001892E0,8.603673357E0
3.477474542E0,2.282752991E-1,2.757864990E0,7.873177643E0,8.345349310E0
3.487517542E0,3.338058472E-2,2.671793976E0,7.808811493E0,8.253310502E0
3.497560542E0,-3.101550293E-1,2.579735413E0,7.708669739E0,8.134790722E0
3.507603542E0,-5.459147644E-1,2.560874634E0,7.538623352E0,7.980410006E0
3.517646542E0,-4.620890808E-1,2.642604675E0,7.362290039E0,7.835827998E0
3.527689542E0,-2.636018372E-1,2.860102386E0,7.229516144E0,7.779175744E0
3.537732542E0,3.757186890E-2,3.173550568E0,7.047644348E0,7.729303055E0
3.547775542E0,3.393443298E-1,3.490142212E0,6.781797180E0,7.634724633E0
3.557818542E0,5.388793945E-1,3.743714905E0,6.419400787E0,7.450805242E0
3.567861542E0,6.360273743E-1,3.978875885E0,6.169720001E0,7.368950334E0
3.577904542E0,5.119354248E-1,4.036805420E0,6.110592957E0,7.341472751E0
3.587947542E0,2.073188782E-1,3.896098022E0,6.326743469E0,7.433050776E0
3.597990542E0,-8.517288208E-2,3.669319611E0,6.756050720E0,7.688652818E0
3.608033542E0,-2.574645996E-1,3.514391785E0,7.173981628E0,7.992699797E0
3.618076542E0,-3.076103210E-1,3.495680695E0,7.439379730E0,8.225495632E0
3.628119542E0,-2.835104370E-1,3.642675018E0,7.593559113E0,8.426838046E0
3.638162542E0,-1.372645569E-1,3.909719696E0,7.796537018E0,8.723000581E0
3.648205542E0,-1.553768921E-1,4.239933014E0,8.247698822E0,9.275004571E0
3.658248542E0,-2.510279846E-1,4.373605042E0,8.527317352E0,9.586791817E0
3.668291542E0,-4.001179504E-1,4.370162201E0,8.577612762E0,9.635032576E0
3.678334542E0,-4.984634399E-1,4.357438660E0,8.406069489E0,9.481441964E0
3.688376542E0,-4.233197021E-1,4.469705200E0,8.158334656E0,9.312136624E0
3.698419542E0,-2.636018372E-1,4.684508514E0,7.946225739E0,9.228033888E0
3.708462542E0,-7.559280396E-2,4.931943970E0,7.828720093E0,9.253034307E0
3.718505542E0,7.259902954E-2,5.164859619E0,7.894283752E0,9.434021490E0
3.728548542E0,2.576142883E-1,5.360951843E0,8.307424622E0,9.890372775E0
3.738591542E0,4.092489624E-1,5.465733948E0,8.901988220E0,1.045404833E1
3.748634542E0,4.553530884E-1,5.370232544E0,9.395661621E0,1.083167583E1
3.758677542E0,3.342549133E-1,5.142406311E0,9.636959839E0,1.092826903E1
3.768720542E0,1.724414062E-1,4.952900391E0,9.865085449E0,1.103996690E1
3.778763292E0,3.547622681E-2,4.850363617E0,1.015578094E1,1.125465114E1
3.788806292E0,-5.882766724E-2,4.736899567E0,1.033750305E1,1.137126411E1
3.798849292E0,-2.007325745E-1,4.644691315E0,1.027882507E1,1.128129850E1
3.808892292E0,-5.087919617E-1,4.691843262E0,1.020577698E1,1.124411607E1
3.818935292E0,-8.063731384E-1,4.787494354E0,1.011776001E1,1.122227283E1
3.828978292E0,-1.021176453E0,4.737198944E0,9.955796814E0,1.107256724E1
3.839021292E0,-1.180295563E0,4.643643494E0,9.791288910E0,1.090072755E1
3.849064292E0,-1.212328949E0,4.632865906E0,9.823172607E0,1.092830765E1
3.859107292E0,-9.723779297E-1,4.509971466E0,1.003393433E1,1.104378556E1
3.869150292E0,-7.511380005E-1,4.307442627E0,1.039812698E1,1.128004056E1
3.879193292E0,-7.379653931E-1,4.064647522E0,1.087308929E1,1.163142395E1
3.889236292E0,-7.243437195E-1,3.744762726E0,1.148980682E1,1.210634472E1
3.899279292E0,-7.197033691E-1,3.330574036E0,1.215367630E1,1.262230343E1
3.909322292E0,-8.219407654E-1,2.955603790E0,1.261801071E1,1.298558334E1
3.919365292E0,-1.024319916E0,2.661764832E0,1.282173706E1,1.313511190E1
3.929408292E0,-1.127455444E0,2.464924164E0,1.264091309E1,1.292825164E1
3.939451292E0,-1.000669098E0,2.590363312E0,1.204350540E1,1.235950416E1
3.949494292E0,-7.020401001E-1,3.047961731E0,1.112336884E1,1.155475077E1
3.959537292E0,-3.089575195E-1,3.552113342E0,1.027882507E1,1.087966952E1
3.969580292E0,1.666035461E-1,3.870201874E0,9.777517548E0,1.051694198E1
3.979623292E0,5.854325867E-1,3.919449463E0,9.483828278E0,1.027851226E1
3.989666292E0,7.608677673E-1,3.847000122E0,9.277407532E0,1.007217058E1
3.999709292E0,7.786807251E-1,3.691922607E0,9.073381805E0,9.826642031E0
4.009752292E0,8.915460205E-1,3.515439606E0,8.880732422E0,9.592735703E0
4.019795292E0,1.078956299E0,3.489094391E0,8.560548248E0,9.307035655E0
4.029838292E0,1.234632568E0,3.527115326E0,8.106841736E0,8.926687125E0
4.039881292E0,1.259480896E0,3.499422913E0,7.540868683E0,8.408148033E0
4.049924292E0,1.263821869E0,3.385809174E0,7.100035400E0,7.966897273E0
4.059967292E0,1.124311981E0,3.272045746E0,7.112609253E0,7.909460865E0
4.070010292E0,6.972500610E-1,3.074905701E0,7.283254395E0,7.936434797E0
4.080052292E0,1.454974365E-1,2.768193512E0,7.334148560E0,7.840522936E0
4.090095292E0,-4.162843323E-1,2.395019531E0,7.151827698E0,7.553677953E0
4.100138292E0,-9.473799133E-1,2.175575867E0,7.062164154E0,7.450155810E0
4.110181292E0,-1.270857239E0,2.155218201E0,7.236401825E0,7.656732657E0
4.120224292E0,-1.240769806E0,2.177222443E0,6.998396759E0,7.433529745E0
4.130267292E0,-1.079704742E0,2.300865326E0,6.314468994E0,6.806780609E0
4.140310292E0,-9.243278503E-1,2.642604675E0,5.742059326E0,6.388191195E0
4.150353292E0,-8.357121277E-1,3.053799591E0,5.538632355E0,6.379698666E0
4.160396292E0,-6.987469482E-1,3.304677887E0,5.640869751E0,6.574842567E0
4.170439292E0,-6.563850403E-1,3.443289642E0,6.112389221E0,7.046161144E0
4.180482292E0,-7.997868347E-1,3.508104858E0,6.809040527E0,7.701265583E0
4.190525292E0,-9.407936096E-1,3.438200226E0,7.433990936E0,8.244424458E0
4.200568292E0,-9.527687073E-1,3.384911041E0,8.018824768E0,8.755966059E0
4.210611292E0,-9.503736877E-1,3.475472717E0,8.532706146E0,9.262245674E0
4.220654292E0,-7.539820862E-1,3.659440155E0,8.842412109E0,9.599387644E0
4.230697292E0,-4.399351501E-1,3.845353546E0,8.764424286E0,9.580992636E0
4.240740292E0,-2.291734314E-1,4.024530945E0,8.450227661E0,9.362463208E0
4.250783292E0,-4.311035156E-2,4.295766907E0,8.273894348E0,9.322703444E0
4.260826292E0,9.011260986E-2,4.623285828E0,8.295898590E0,9.497622099E0
4.270869292E0,-3.742218018E-2,4.858147430E0,8.456813965E0,9.752984123E0
4.280912292E0,-2.746788025E-1,4.881798248E0,8.561147003E0,9.859038523E0
4.290955292E0,-5.468128967E-1,4.753664703E0,8.774303741E0,9.994235269E0
4.300998292E0,-7.756869507E-1,4.676575012E0,9.106013947E0,1.026603790E1
4.311041292E0,-9.940827942E-1,4.636907501E0,9.332792358E0,1.046853022E1
4.321084292E0,-1.155147858E0,4.640500031E0,9.346863098E0,1.049916458E1
4.331127292E0,-1.227746887E0,4.665348358E0,9.224567413E0,1.040987424E1
4.341170292E0,-1.354832611E0,4.728367310E0,9.122629395E0,1.036413990E1
4.351213292E0,-1.428778839E0,4.808600464E0,9.103169861E0,1.039383225E1
4.361256292E0,-1.415306854E0,4.816084900E0,9.284442902E0,1.055455576E1
4.371299292E0,-1.343156891E0,4.696932678E0,9.748477936E0,1.090403912E1
4.381342292E0,-1.467697906E0,4.488865356E0,1.029394363E1,1.132560483E1
4.391385292E0,-1.837429047E0,4.227359161E0,1.072190369E1,1.167072961E1
4.401428292E0,-2.278412018E0,3.975433044E0,1.089389603E1,1.181829936E1
4.411471292E0,-2.588567047E0,3.932622070E0,1.083910995E1,1.181746590E1
4.421514292E0,-2.605481873E0,4.162693634E0,1.071621552E1,1.178786788E1
4.431557292E0,-2.292931824E0,4.606371002E0,1.060364960E1,1.178616031E1
4.441600292E0,-1.900447998E0,5.140460358E0,1.055619827E1,1.189408917E1
4.451643292E0,-1.399888916E0,5.569767609E0,1.056009018E1,1.202071149E1
4.461686292E0,-8.948391724E-1,5.682034149E0,1.066157913E1,1.211426922E1
4.471729292E0,-7.261399841E-1,5.304219818E0,1.114282837E1,1.236222679E1
4.481771292E0,-9.428892517E-1,4.314178619E0,1.213975525E1,1.291800429E1
4.491814292E0,-1.521585846E0,3.060236206E0,1.324056610E1,1.367453326E1
4.501857292E0,-2.358645172E0,2.015259247E0,1.375744125E1,1.410289569E1
4.511900292E0,-2.761008453E0,1.492845612E0,1.335088669E1,1.371487991E1
4.521943292E0,-2.441123657E0,1.674717407E0,1.196506851E1,1.232585200E1
4.531986292E0,-1.651815033E0,2.574795685E0,1.012928604E1,1.058113895E1
4.542029292E0,-9.547146606E-1,3.593128052E0,8.636590118E0,9.402804802E0
4.552072292E0,-6.491999817E-1,4.213138733E0,7.831863556E0,8.916842791E0
4.562115292E0,-7.084767151E-1,4.255500641E0,7.692653046E0,8.819758264E0
4.572158292E0,-9.789642334E-1,3.824397125E0,8.003706207E0,8.924331762E0
4.582201292E0,-1.450483704E0,3.165018311E0,8.581953735E0,9.261272796E0
4.592244292E0,-1.797162781E0,2.476001129E0,9.247619476E0,9.740577069E0
4.602287292E0,-1.985022125E0,1.876946869E0,9.821975098E0,1.019482404E1
4.612330292E0,-2.012564850E0,1.523232422E0,1.020892044E1,1.051630690E1
4.622373292E0,-1.697769470E0,1.361867981E0,1.040950333E1,1.063460695E1
4.632416292E0,-1.111139374E0,1.415905609E0,1.026205994E1,1.041869923E1
4.642459292E0,-6.215075684E-1,1.745669861E0,9.815089417E0,9.988474116E0
4.652502292E0,-3.763174438E-1,2.211052094E0,9.213640137E0,9.482696386E0
4.662545292E0,-3.498225403E-1,2.566413116E0,8.580307159E0,8.962729665E0
4.672588292E0,-5.596861267E-1,2.701731720E0,8.021070099E0,8.482344510E0
4.682631292E0,-6.307882690E-1,2.692600708E0,7.611222382E0,8.098067582E0
4.692674292E0,-7.247927856E-1,2.692001953E0,7.372169495E0,7.881692848E0
4.702717292E0,-7.557783508E-1,2.708168335E0,7.155270538E0,7.687865316E0
4.712760292E0,-7.521858215E-1,2.727029114E0,6.905589752E0,7.462549238E0
4.722803292E0,-6.929090881E-1,2.775378571E0,6.760242004E0,7.340553193E0
4.732846292E0,-6.486012268E-1,2.872077484E0,6.789281616E0,7.400260637E0
4.742889292E0,-4.375401306E-1,3.014132080E0,6.971752167E0,7.608006430E0
4.752932292E0,-2.188449097E-1,3.161725159E0,7.223827972E0,7.888478285E0
4.762975292E0,-2.281256104E-1,3.335813141E0,7.454647980E0,8.170157104E0
4.773018292E0,-2.564167786E-1,3.419938202E0,7.579638062E0,8.319413442E0
4.783060542E0,-3.279679871E-1,3.401676178E0,7.605534210E0,8.338052197E0
4.793103542E0,-5.057981873E-1,3.366948395E0,7.608677673E0,8.335715280E0
4.803146542E0,-6.310876465E-1,3.311264191E0,7.566315765E0,8.283228623E0
4.813189542E0,-6.471043396E-1,3.310515747E0,7.573351135E0,8.290591412E0
4.823232542E0,-6.502478027E-1,3.522175598E0,7.678282928E0,8.472577641E0
4.833275542E0,-6.815327454E-1,3.759581909E0,7.795339508E0,8.681374376E0
4.843318542E0,-6.033952332E-1,3.964056702E0,7.909701691E0,8.867988057E0
4.853361542E0,-5.192701721E-1,4.151466980E0,7.983947296E0,9.013752494E0
4.863404542E0,-5.535488892E-1,4.243375854E0,7.990832977E0,9.064549999E0
4.873447542E0,-5.914201355E-1,4.265230408E0,8.088130646E0,9.162959432E0
4.883489542E0,-4.676275635E-1,4.316873016E0,8.155191193E0,9.239113137E0
4.893532542E0,-3.788621521E-1,4.381089478E0,8.254584503E0,9.352841646E0
4.903575542E0,-3.480262756E-1,4.463418274E0,8.551267548E0,9.652326230E0
4.913618542E0,-2.914439392E-1,4.546196136E0,8.961115265E0,1.005258303E1
4.923661542E0,-2.261796570E-1,4.582420807E0,9.328451385E0,1.039565981E1
4.933704542E0,-1.996847534E-1,4.547693024E0,9.484127655E0,1.051998399E1
4.943747542E0,-9.999206543E-2,4.460873566E0,9.453591156E0,1.045369682E1
4.953790542E0,-1.068777466E-1,4.370760956E0,9.475595398E0,1.043560647E1
4.963833542E0,-1.718426514E-1,4.271068268E0,9.782307587E0,1.067544359E1
4.973876542E0,-1.871109009E-1,4.183350677E0,1.014635056E1,1.097651415E1
4.983919542E0,-3.267704773E-1,4.086053009E0,1.026430527E1,1.105253685E1
4.993962542E0,-7.235952759E-1,3.975882111E0,1.016476227E1,1.093862974E1
5.004005542E0,-1.180445251E0,3.944148102E0,9.961934052E0,1.077914121E1
5.014048542E0,-1.324445801E0,4.004772034E0,9.907896423E0,1.076841526E1
5.024091542E0,-1.144070892E0,4.211791534E0,9.985285492E0,1.089743146E1
5.034134542E0,-8.237370300E-1,4.479285278E0,9.990973663E0,1.098007714E1
5.044177542E0,-2.125579834E-1,4.797074432E0,9.981992340E0,1.107688021E1
5.054220542E0,3.592529297E-1,5.010680237E0,1.004905289E1,1.123474268E1
5.064263542E0,5.246589661E-1,4.984185333E0,1.023900787E1,1.139976547E1
5.074306542E0,2.254312134E-1,4.507726135E0,1.080348404E1,1.170835947E1
5.084349542E0,-5.098397827E-1,3.650758209E0,1.182331329E1,1.238461583E1
5.094392542E0,-1.382525024E0,2.581082611E0,1.282053955E1,1.315065007E1
5.104435542E0,-2.232158203E0,1.738484802E0,1.370055954E1,1.398964586E1
5.114478542E0,-2.667303314E0,1.247356110E0,1.422686508E1,1.452838925E1
5.124521542E0,-2.572849731E0,1.291813660E0,1.398601593E1,1.427924998E1
5.134564542E0,-2.090103607E0,1.858086090E0,1.279120056E1,1.309335056E1
5.144607542E0,-1.417851562E0,2.688708801E0,1.111857880E1,1.152658894E1
5.154650542E0,-7.994874573E-1,3.426524506E0,9.785600739E0,1.039895342E1
5.164693542E0,-2.487826538E-1,3.697311401E0,9.062005463E0,9.790400779E0
5.174736542E0,1.910028076E-1,3.720363464E0,8.816965027E0,9.571648691E0
5.184779542E0,4.153862000E-1,3.713627472E0,8.820856934E0,9.579722947E0
5.194822542E0,4.555027771E-1,3.671115875E0,8.790170746E0,9.536858827E0
5.204865542E0,4.755610657E-1,3.630400543E0,8.593928833E0,9.341390647E0
5.214908542E0,5.149291992E-1,3.658691711E0,8.253087616E0,9.042379793E0
5.224951542E0,4.773573303E-1,3.797004089E0,7.805368652E0,8.693036861E0
5.234994542E0,4.023632813E-1,3.925137634E0,7.308701477E0,8.305764200E0
5.245037542E0,2.188449097E-1,3.969894562E0,6.885381775E0,7.950876563E0
5.255080542E0,-3.472778320E-2,3.874393158E0,6.620432739E0,7.670870747E0
5.265123542E0,-2.932402039E-1,3.713178406E0,6.508914642E0,7.499310202E0
5.275166542E0,-4.785548401E-1,3.543281708E0,6.475833435E0,7.397315640E0
5.285209542E0,-8.430468750E-1,3.232527924E0,6.483467560E0,7.293511939E0
5.295252542E0,-1.212628326E0,2.881956940E0,6.627318420E0,7.327857307E0
5.305294542E0,-1.394500122E0,2.595602417E0,7.013365631E0,7.607172929E0
5.315337542E0,-1.502874756E0,2.457589417E0,7.418722687E0,7.958380776E0
5.325380542E0,-1.327888641E0,2.491419067E0,7.597900085E0,8.105463770E0
5.335423542E0,-9.535171509E-1,2.648442535E0,7.489974518E0,8.001447438E0
5.345466542E0,-6.216572571E-1,2.909499664E0,7.140601044E0,7.735620809E0
5.355509542E0,-3.760180664E-1,3.216211853E0,6.826853485E0,7.555880940E0
5.365552542E0,-2.336640930E-1,3.509452057E0,6.694977722E0,7.562643675E0
5.375595542E0,-2.344125366E-1,3.675756226E0,6.867868195E0,7.793185909E0
5.385638542E0,-3.617976379E-1,3.725003815E0,7.149582367E0,8.069887172E0
5.395681542E0,-5.129832458E-1,3.703298950E0,7.439828796E0,8.326381414E0
5.405724542E0,-6.602769470E-1,3.651506653E0,7.815996552E0,8.652125090E0
5.415767542E0,-7.740403748E-1,3.554508362E0,8.262068939E0,9.027483113E0
5.425810542E0,-6.712042236E-1,3.504362640E0,8.693172455E0,9.396931412E0
5.435853542E0,-3.998185730E-1,3.648662567E0,9.055868225E0,9.771455507E0
5.445896542E0,-1.836680603E-1,3.952530670E0,9.110205231E0,9.932374943E0
5.455939542E0,-1.273851013E-1,4.281845856E0,8.890462189E0,9.868675130E0
5.465982542E0,5.897735596E-2,4.587809601E0,8.604257355E0,9.751139415E0
5.476025542E0,2.642005920E-1,4.863087158E0,8.457113342E0,9.759210252E0
5.486068542E0,2.944377136E-1,5.136418762E0,8.643625488E0,1.005891410E1
5.496111542E0,2.281256104E-1,5.189707947E0,9.030720520E0,1.041820632E1
5.506154542E0,4.954696655E-2,5.038073273E0,9.453291779E0,1.071211289E1
5.516197542E0,-2.636018372E-1,4.729564819E0,9.713151398E0,1.080664515E1
5.526240542E0,-6.212081909E-1,4.362228699E0,9.793234863E0,1.073882619E1
5.536283542E0,-9.175918579E-1,4.016447754E0,9.827663269E0,1.065630296E1
5.546326542E0,-9.151968384E-1,3.851490784E0,9.939331055E0,1.069868535E1
5.556369542E0,-8.256829834E-1,3.861070862E0,1.011326935E1,1.085669551E1
5.566412542E0,-8.824150085E-1,3.831881561E0,1.024798920E1,1.097648647E1
5.576455542E0,-1.043629761E0,3.748504944E0,1.031639694E1,1.102581055E1
5.586498542E0,-1.236728210E0,3.740122375E0,1.025502457E1,1.098560608E1
5.596541542E0,-1.252445526E0,3.932322693E0,1.017404297E1,1.097920452E1
5.606584542E0,-1.162632294E0,4.303550720E0,1.007629623E1,1.101834872E1
5.616627542E0,-1.099613342E0,4.705315247E0,1.007539810E1,1.117420189E1
5.626670542E0,-9.762698364E-1,4.925058289E0,1.011057495E1,1.128862382E1
5.636713542E0,-9.520202637E-1,4.834795990E0,1.037672150E1,1.148729489E1
5.646756542E0,-1.217568054E0,4.370311890E0,1.105570953E1,1.195034775E1
5.656799542E0,-1.627415771E0,3.533701630E0,1.191971283E1,1.253854390E1
5.666842542E0,-1.975891113E0,2.662662964E0,1.234108658E1,1.277874554E1
5.676885542E0,-2.099234619E0,2.167792053E0,1.225830872E1,1.262427190E1
5.686928542E0,-1.857487335E0,2.118694153E0,1.154803574E1,1.188681006E1
5.696971542E0,-1.431024170E0,2.530936890E0,1.042417282E1,1.082205390E1
5.707014542E0,-1.023421783E0,3.190465393E0,9.352700958E0,9.934761033E0
5.717057542E0,-7.450007629E-1,3.592828674E0,8.667276306E0,9.411966988E0
5.727099542E0,-6.695576477E-1,3.578907623E0,8.389304352E0,9.145343882E0
5.737142542E0,-9.099577332E-1,3.301235046E0,8.618028717E0,9.273434902E0
5.747185542E0,-1.265767822E0,2.821482697E0,9.349707184E0,9.847840231E0
5.757228542E0,-1.383423157E0,2.264490967E0,1.034618500E1,1.068107312E1
5.767271542E0,-1.383123779E0,1.830243988E0,1.113399673E1,1.136788053E1
5.777315083E0,-1.405876465E0,1.613195343E0,1.148232239E1,1.168000922E1
5.787358083E0,-1.281335449E0,1.603465576E0,1.138068375E1,1.156429353E1
5.797401083E0,-9.557624817E-1,1.891017609E0,1.078447357E1,1.099064601E1
5.807444083E0,-5.273533630E-1,2.313738556E0,9.987979889E0,1.026602308E1
5.817487083E0,-1.481918335E-1,2.687511292E0,9.264234924E0,9.647317062E0
5.827530083E0,-3.517684937E-2,2.936443634E0,8.718469849E0,9.199763863E0
5.837573083E0,-1.038839722E-1,2.980901184E0,8.363408203E0,8.879367124E0
5.847616083E0,-3.375480652E-1,2.924618225E0,8.072862396E0,8.592929520E0
5.857659083E0,-5.267546082E-1,2.868634644E0,7.752977600E0,8.283429049E0
5.867702083E0,-5.391787720E-1,2.894979858E0,7.415579224E0,7.978874441E0
5.877745083E0,-3.239263916E-1,3.161276093E0,7.157216492E0,7.830986065E0
5.887788083E0,2.110610962E-2,3.554957428E0,7.021448822E0,7.870127784E0
5.897831083E0,2.183958435E-1,3.912264404E0,6.856791229E0,7.897410682E0
5.907874083E0,2.559677124E-1,4.137396240E0,6.567293243E0,7.766138530E0
5.917917083E0,3.053649902E-1,4.173022156E0,6.329437866E0,7.587433386E0
5.927960083E0,2.450404358E-1,4.220623169E0,6.429429932E0,7.694886224E0
5.938003083E0,7.544311523E-2,4.151766357E0,6.845863953E0,8.006791418E0
5.948046083E0,-1.266366577E-1,3.800746307E0,7.236401825E0,8.174791784E0
5.958089083E0,-4.731660461E-1,3.422931976E0,7.468119965E0,8.228800959E0
5.968132083E0,-9.080117798E-1,3.137026520E0,7.701484680E0,8.365302568E0
5.978175083E0,-1.174158325E0,3.085683289E0,8.141719208E0,8.785651984E0
5.988218083E0,-1.179247742E0,3.191064148E0,8.616831207E0,9.264086339E0
5.998261083E0,-8.602610779E-1,3.363355865E0,9.017248535E0,9.662452222E0
6.008304083E0,-3.466790771E-1,3.655099182E0,9.145082703E0,9.854566152E0
6.018347083E0,6.930587769E-2,3.990102539E0,8.855135651E0,9.712834240E0
6.028390083E0,2.830613708E-1,4.294120331E0,8.436456299E0,9.470659324E0
6.038433083E0,3.664379883E-1,4.530329132E0,8.165070648E0,9.344866908E0
6.048476083E0,3.513194275E-1,4.623285828E0,8.050858154E0,9.290560489E0
6.058519083E0,2.856060791E-1,4.602329407E0,8.071365509E0,9.295695132E0
6.068562083E0,2.125579834E-1,4.532724152E0,8.246800690E0,9.412783369E0
6.078605083E0,6.795867920E-2,4.485572205E0,8.654103699E0,9.747742673E0
6.088648083E0,1.032852173E-1,4.317621460E0,9.158404999E0,1.012565578E1
6.098691083E0,3.128494263E-2,4.074826355E0,9.927355957E0,1.073115021E1
6.108734083E0,2.050735474E-2,3.876039734E0,1.063194077E1,1.131646009E1
6.118777083E0,-2.380050659E-2,3.689826965E0,1.065005310E1,1.127115879E1
6.128820083E0,-1.905537415E-1,3.597768402E0,1.016805542E1,1.078747418E1
6.138863083E0,-4.981640625E-1,3.777843933E0,9.675579529E0,1.039889953E1
6.148906083E0,-6.692582703E-1,4.144730988E0,9.382339325E0,1.027886145E1
6.158949083E0,-7.002438354E-1,4.446802826E0,9.268126831E0,1.030352230E1
6.168992083E0,-7.307803345E-1,4.572990417E0,9.269174652E0,1.036165431E1
6.179035083E0,-8.054750061E-1,4.562512207E0,9.322463837E0,1.041026607E1
6.189077083E0,-8.768765259E-1,4.513114929E0,9.417516174E0,1.047982489E1
6.199121083E0,-7.197033691E-1,4.413422241E0,9.776918793E0,1.075101902E1
6.209163083E0,-4.504133606E-1,4.152664490E0,1.052700897E1,1.132543211E1
6.219206083E0,-4.799020386E-1,3.751498718E0,1.175595337E1,1.234935173E1
6.229249083E0,-7.572752380E-1,3.142864380E0,1.306303528E1,1.345711533E1
6.239292083E0,-1.334325256E0,2.340532837E0,1.406834473E1,1.432399529E1
6.249335083E0,-1.763931885E0,1.644629974E0,1.464030533E1,1.483761448E1
6.259378083E0,-1.836381226E0,1.340312805E0,1.446217575E1,1.463978353E1
6.269421083E0,-1.482666779E0,1.565893707E0,1.367331619E1,1.384232277E1
6.279464083E0,-8.488847351E-1,2.277663574E0,1.253223907E1,1.276578916E1
6.289507083E0,-9.819580078E-2,3.026107178E0,1.117860397E1,1.158137098E1
6.299550083E0,3.691323853E-1,3.379821625E0,1.011057495E1,1.066691984E1
6.309593083E0,5.040019226E-1,3.427123260E0,9.426647186E0,1.004295121E1
6.319636083E0,5.110372925E-1,3.345842285E0,8.901389465E0,9.523158831E0
6.329679083E0,5.692662048E-1,3.251837769E0,8.403524780E0,9.028717606E0
6.339722083E0,4.875361633E-1,3.241808624E0,7.848778381E0,8.505900114E0
6.349765083E0,3.240760803E-1,3.197201385E0,7.344626770E0,8.016898677E0
6.359808083E0,1.026864624E-1,3.137026520E0,6.985523529E0,7.658264743E0
6.369851083E0,-7.185058594E-2,3.088078308E0,6.909930725E0,7.568918864E0
6.379894083E0,-1.281335449E-1,3.141517181E0,6.905889130E0,7.587941294E0
6.389937083E0,-1.871109009E-2,3.208278351E0,6.988517303E0,7.689783754E0
6.399980083E0,1.245410156E-1,3.195554810E0,6.987319794E0,7.684381491E0
6.410023083E0,1.103205872E-1,3.140319672E0,7.045399017E0,7.714364885E0
6.420066083E0,-6.481521606E-2,3.026256866E0,7.185956726E0,7.797461491E0
6.430109083E0,-2.823129272E-1,2.788850555E0,7.339237976E0,7.856322427E0
6.440152083E0,-5.459147644E-1,2.584076385E0,7.527396698E0,7.977291191E0
6.450195083E0,-8.080197144E-1,2.475701752E0,7.728728027E0,8.155687092E0
6.460238083E0,-8.355624390E-1,2.395917664E0,7.844886475E0,8.245048808E0
6.470281083E0,-6.102809143E-1,2.502346344E0,7.818690948E0,8.232017260E0
6.480324083E0,-3.725752258E-1,2.771636353E0,7.713459778E0,8.204769474E0
6.490367083E0,-1.371148682E-1,3.096760254E0,7.358398132E0,7.984657014E0
6.500410083E0,6.750961304E-2,3.364852753E0,6.904242554E0,7.680843498E0
6.510453083E0,1.190025330E-1,3.616928558E0,6.644682312E0,7.566249852E0
6.520496083E0,8.113128662E-2,3.814367981E0,6.696025543E0,7.706668765E0
6.530539083E0,-7.933502197E-3,3.904330902E0,6.969955902E0,7.989001690E0
6.540582083E0,-4.191284180E-3,3.952380981E0,7.266788635E0,8.272094660E0
6.550625083E0,4.640350342E-3,3.960763550E0,7.529492340E0,8.507697945E0
6.560668083E0,-1.245410156E-1,3.982318726E0,8.061635742E0,8.992460383E0
6.570711083E0,-2.204914856E-1,4.084107056E0,8.829389191E0,9.730707087E0
6.580754083E0,-9.774673462E-2,4.195325775E0,9.319320374E0,1.022056970E1
6.590797083E0,5.328918457E-2,4.396208038E0,9.341324615E0,1.032423510E1
6.600840083E0,2.730322266E-1,4.701423340E0,9.091793518E0,1.023907405E1
6.610883083E0,5.078938293E-1,4.962929535E0,8.876241760E0,1.018215564E1
6.620926083E0,2.824626160E-1,5.071154480E0,9.017697601E0,1.034965038E1
6.630969083E0,-1.324745178E-1,4.959636383E0,9.324260101E0,1.056207219E1
6.641012083E0,-5.532495117E-1,4.634063416E0,9.533375244E0,1.061441813E1
6.651055083E0,-1.058299255E0,4.337530060E0,9.873617706E0,1.083616588E1
6.661098083E0,-1.394649811E0,4.094884644E0,1.044947021E1,1.130948965E1
6.671141083E0,-1.446741486E0,3.854484558E0,1.081740509E1,1.157438400E1
6.681183083E0,-1.221609650E0,3.663182373E0,1.082054855E1,1.148892973E1
6.691226083E0,-1.093176727E0,3.533402252E0,1.063703018E1,1.126172180E1
6.701269083E0,-1.056802368E0,3.490142212E0,1.066472260E1,1.127094636E1
6.711312083E0,-1.125958557E0,3.532204742E0,1.076501404E1,1.138550747E1
6.721355083E0,-1.103654938E0,3.668271790E0,1.078327606E1,1.144348351E1
6.731398083E0,-9.641450500E-1,3.968247986E0,1.071292236E1,1.146487127E1
6.741441083E0,-8.707392883E-1,4.420906677E0,1.054467224E1,1.146702731E1
6.751484083E0,-8.331674194E-1,4.757706299E0,1.040171951E1,1.146846572E1
6.761527083E0,-8.301736450E-1,4.607119446E0,1.039318726E1,1.139881920E1
6.771570083E0,-1.044677582E0,4.118535461E0,1.077204941E1,1.157975535E1
6.781613167E0,-1.393601990E0,3.529210968E0,1.128054199E1,1.190160007E1
6.791656167E0,-1.640588379E0,2.996319122E0,1.119042938E1,1.170022086E1
6.801699167E0,-1.609902191E0,2.786305847E0,1.043809387E1,1.092287000E1
6.811742167E0,-1.260828094E0,3.023412781E0,9.375004578E0,9.930831947E0
6.821785167E0,-8.499325562E-1,3.556154938E0,8.589138794E0,9.334984120E0
6.831828167E0,-4.577481079E-1,4.027824097E0,7.976462860E0,8.947449918E0
6.841871167E0,-3.144960022E-1,4.217330017E0,7.654781799E0,8.745311007E0
6.851914167E0,-5.959107971E-1,4.010310516E0,7.788753204E0,8.780795898E0
6.861957167E0,-9.666897583E-1,3.549568634E0,8.298443298E0,9.077339244E0
6.872000167E0,-1.176403656E0,3.006947021E0,9.054371338E0,9.612871386E0
6.882043167E0,-1.169817352E0,2.555036774E0,9.807305603E0,1.020195710E1
6.892086167E0,-1.173858948E0,2.334395599E0,1.035486694E1,1.067944835E1
6.902129167E0,-1.125659180E0,2.272873535E0,1.058404037E1,1.088370219E1
6.912172167E0,-9.593550110E-1,2.260000305E0,1.044722488E1,1.073184379E1
6.922215167E0,-6.734495544E-1,2.411634979E0,1.008258316E1,1.038884020E1
6.932258167E0,-4.082011414E-1,2.700833588E0,9.727521515E0,1.010375203E1
6.942301167E0,-2.936892700E-1,2.911595306E0,9.477092285E0,9.918614762E0
6.952344167E0,-4.138893127E-1,2.931952972E0,9.153465271E0,9.620477070E0
6.962387167E0,-7.128176880E-1,2.794538727E0,8.765771484E0,9.228017418E0
6.972430167E0,-9.668394470E-1,2.606978760E0,8.419840851E0,8.867064719E0
6.982473167E0,-1.048120422E0,2.543361053E0,8.093818817E0,8.548517118E0
6.992516167E0,-8.906478882E-1,2.809058533E0,7.661368103E0,8.208570199E0
7.002559167E0,-6.613247681E-1,3.225941620E0,7.077282715E0,7.805893953E0
7.012602167E0,-3.216810608E-1,3.670517120E0,6.589596863E0,7.549765655E0
7.022645167E0,8.696914673E-2,4.078867950E0,6.425687714E0,7.611451240E0
7.032688167E0,1.938468933E-1,4.309987335E0,6.474935303E0,7.780639731E0
7.042731167E0,2.573149109E-1,4.357438660E0,6.719227295E0,8.012583733E0
7.052774167E0,2.585124207E-1,4.227359161E0,7.062912598E0,8.235419146E0
7.062817167E0,-3.981719971E-2,3.984564056E0,7.374414825E0,8.382143529E0
7.072860167E0,-3.592529297E-1,3.696113892E0,7.649991760E0,8.503687112E0
7.082903167E0,-6.168672180E-1,3.422931976E0,7.986192627E0,8.710698086E0
7.092946167E0,-7.818241882E-1,3.320245514E0,8.444988556E0,9.107859850E0
7.102989167E0,-9.454339600E-1,3.421435089E0,9.027577057E0,9.700371692E0
7.113032167E0,-8.797206116E-1,3.538491669E0,9.649982758E0,1.031586152E1
7.123075167E0,-7.089257812E-1,3.629502411E0,1.005249573E1,1.071114064E1
7.133118167E0,-3.866459656E-1,3.758683777E0,9.857750702E0,1.055710414E1
7.143161167E0,-1.161584473E-1,3.978726196E0,9.214238892E0,1.003722837E1
7.153204167E0,-3.996688843E-2,4.310735779E0,8.691825256E0,9.702157832E0
7.163247167E0,-3.592529297E-3,4.575984192E0,8.424032135E0,9.586655394E0
7.173289167E0,3.263214111E-2,4.646637268E0,8.271649017E0,9.487490723E0
7.183332167E0,-2.080673218E-2,4.569996643E0,8.220455475E0,9.405380931E0
7.193375167E0,-1.363664246E-1,4.499642944E0,8.670120392E0,9.769154008E0
7.203418167E0,-2.213896179E-1,4.366719360E0,9.589059448E0,1.053884778E1
7.213461167E0,-3.544628906E-1,4.143234100E0,1.046069687E1,1.125691839E1
7.223504167E0,-5.761518860E-1,3.946543121E0,1.116528168E1,1.185625019E1
7.233547167E0,-7.622149658E-1,3.837569733E0,1.138861725E1,1.204194818E1
7.243590167E0,-1.156644745E0,3.864513702E0,1.120030884E1,1.190458783E1
7.253633167E0,-1.506616974E0,4.042343903E0,1.078986237E1,1.162030846E1
7.263676167E0,-1.540296936E0,4.220323792E0,1.038315811E1,1.131342653E1
7.273719167E0,-1.296753387E0,4.443359985E0,1.011776001E1,1.112627902E1
7.283762167E0,-1.110390930E0,4.651726685E0,9.941875763E0,1.103233533E1
7.293805167E0,-9.626481628E-1,4.659959564E0,9.769434357E0,1.086663528E1
7.303848167E0,-7.444020081E-1,4.533622284E0,9.892328796E0,1.090715519E1
7.313891167E0,-3.646417236E-1,4.378993835E0,1.036384827E1,1.125690461E1
7.323934167E0,6.286926270E-3,4.114942932E0,1.110750183E1,1.184522654E1
7.333977167E0,8.831634521E-2,3.734883270E0,1.176238998E1,1.234143310E1
7.344020167E0,-7.619155884E-2,3.277135162E0,1.229647934E1,1.272591153E1
7.354063167E0,-4.373904419E-1,2.801723785E0,1.235979767E1,1.268091341E1
7.364106167E0,-8.761280823E-1,2.548151093E0,1.176882660E1,1.207335719E1
7.374149167E0,-1.235530701E0,2.699636078E0,1.075633209E1,1.115855058E1
7.384192167E0,-1.142274628E0,3.030298462E0,9.661508789E0,1.018981119E1
7.394235167E0,-7.207511902E-1,3.329526215E0,8.785530396E0,9.422885515E0
7.404278167E0,-2.269281006E-1,3.525319061E0,8.237969055E0,8.963453854E0
7.414321167E0,1.704954529E-1,3.656446381E0,8.115523682E0,8.902830643E0
7.424364167E0,3.457809448E-1,3.593128052E0,8.210725708E0,8.969177795E0
7.434407167E0,6.765930176E-1,3.461701355E0,8.328381042E0,9.044505800E0
7.444450167E0,1.086291046E0,3.476370850E0,8.434510345E0,9.187281823E0
7.454493167E0,1.330732727E0,3.547922058E0,8.347990265E0,9.167744651E0
7.464536167E0,1.335672455E0,3.660637665E0,8.162076874E0,9.044544649E0
7.474579167E0,1.156644745E0,3.753893738E0,8.127498779E0,9.026947528E0
7.484622167E0,8.705895996E-1,3.722459106E0,8.049660645E0,8.911322267E0
7.494665167E0,4.352947998E-1,3.560645599E0,7.738008728E0,8.529036154E0
7.504708167E0,-5.942642212E-2,3.285068665E0,7.347470856E0,8.048635636E0
7.514751167E0,-4.363426208E-1,3.040177917E0,7.062313843E0,7.701256616E0
7.524794167E0,-5.545967102E-1,2.861150208E0,6.960675201E0,7.546175010E0
7.534837167E0,-6.204597473E-1,2.788401489E0,6.935228119E0,7.500502798E0
7.544880167E0,-6.640191650E-1,2.813249817E0,6.925498352E0,7.504520198E0
7.554923167E0,-6.966513062E-1,2.904260559E0,6.969357147E0,7.582347360E0
7.564966167E0,-7.077282715E-1,2.994373169E0,7.125332794E0,7.761283232E0
7.575009167E0,-5.096900940E-1,3.098406830E0,7.118746490E0,7.780518008E0
7.585052167E0,-4.537065125E-1,3.256178741E0,6.880891113E0,7.625956472E0
7.595095167E0,-3.932322693E-1,3.457210693E0,6.654561768E0,7.509336170E0
7.605138167E0,-2.989283752E-1,3.676953735E0,6.628366241E0,7.585814787E0
7.615181167E0,-2.773731995E-1,3.830833740E0,6.818770294E0,7.826100649E0
7.625224167E0,-3.957769775E-1,3.908222809E0,7.118896179E0,8.130776577E0
7.635267167E0,-5.514532471E-1,3.936064911E0,7.424710236E0,8.421581191E0
7.645310167E0,-5.129832458E-1,3.942052460E0,7.656877441E0,8.627322966E0
7.655353167E0,-5.101391602E-1,3.982618103E0,7.765401764E0,8.742022276E0
7.665396167E0,-4.429289246E-1,4.037703552E0,7.940836945E0,8.919424162E0
7.675439167E0,-2.758763123E-1,4.160747681E0,8.180638275E0,9.182089718E0
7.685482167E0,-4.595443726E-2,4.338727570E0,8.447982330E0,9.497108728E0
7.695525167E0,-1.787283325E-1,4.515360260E0,8.787775726E0,9.881569931E0
7.705568167E0,-3.598516846E-1,4.467010803E0,9.104367371E0,1.014757035E1
7.715611167E0,-5.038522339E-1,4.328548737E0,9.375154266E0,1.033845824E1
7.725653167E0,-6.599775696E-1,4.290378113E0,9.661209412E0,1.059159488E1
7.735696167E0,-6.527925110E-1,4.348756714E0,9.977801056E0,1.090386798E1
7.745739167E0,-5.592370605E-1,4.442312164E0,1.018497025E1,1.112566863E1
7.755782167E0,-5.589376831E-1,4.528832245E0,1.018092865E1,1.115679349E1
7.765825167E0,-4.742138672E-1,4.544100494E0,1.008452911E1,1.107119937E1
7.775867792E0,-3.875440979E-1,4.484823761E0,1.012180161E1,1.107766683E1
7.785910792E0,-5.421725464E-1,4.285288696E0,1.036759048E1,1.123141054E1
7.795953792E0,-8.876541138E-1,3.896247711E0,1.066247726E1,1.138670705E1
7.805996792E0,-1.309476929E0,3.618275757E0,1.088371719E1,1.154391395E1
7.816039792E0,-1.561702423E0,3.669169922E0,1.086216202E1,1.157101059E1
7.826082792E0,-1.568737793E0,3.977678375E0,1.049347870E1,1.133119406E1
7.836125792E0,-1.632654877E0,4.534221039E0,1.002121078E1,1.111977464E1
7.846168792E0,-1.581161957E0,5.100792847E0,9.810898132E0,1.117013352E1
7.856211792E0,-1.333726501E0,5.337600403E0,9.938283234E0,1.135950166E1
7.866254792E0,-1.318907318E0,5.085374908E0,1.049931656E1,1.174036638E1
7.876297792E0,-1.510059814E0,4.439019012E0,1.136541550E1,1.229462646E1
7.886340792E0,-1.829196167E0,3.622167664E0,1.209140579E1,1.275414251E1
7.896383792E0,-1.963317261E0,3.147504730E0,1.233000961E1,1.287596745E1
7.906426792E0,-1.822310486E0,3.215164032E0,1.187241119E1,1.243431714E1
7.916469792E0,-1.340761871E0,3.564986572E0,1.074750046E1,1.140243561E1
7.926512792E0,-9.286688232E-1,4.014352112E0,9.480834503E0,1.033748865E1
7.936555792E0,-6.818321228E-1,4.294569397E0,8.791218567E0,9.807841008E0
7.946598792E0,-5.590873718E-1,4.191882935E0,8.742569733E0,9.711693300E0
7.956641792E0,-7.773335266E-1,3.762575684E0,9.168583832E0,9.941033783E0
7.966684792E0,-1.042282562E0,3.158881073E0,9.925260315E0,1.046784003E1
7.976727792E0,-1.136586456E0,2.633922729E0,1.057086777E1,1.095320150E1
7.986770792E0,-1.243464203E0,2.272873535E0,1.078028229E1,1.108722885E1
7.996813792E0,-1.323996735E0,2.099234619E0,1.050051407E1,1.078983545E1
8.006856792E0,-1.267564087E0,2.090402985E0,9.927056580E0,1.022364689E1
8.016899792E0,-9.960287476E-1,2.258054352E0,9.425150299E0,9.742912341E0
8.026942792E0,-6.508465576E-1,2.498005371E0,8.864116974E0,9.232345412E0
8.036985792E0,-4.893324280E-1,2.702330475E0,8.239465942E0,8.685092702E0
8.047028792E0,-3.869453430E-1,2.839595032E0,7.751929779E0,8.264710639E0
8.057071792E0,-4.067042542E-1,2.872526550E0,7.444169769E0,7.989523183E0
8.067114792E0,-4.966671753E-1,2.813848572E0,7.175628204E0,7.723604223E0
8.077157792E0,-6.002517700E-1,2.766546936E0,6.919061737E0,7.475794236E0
8.087200792E0,-6.460565186E-1,2.809357910E0,6.802005157E0,7.387635282E0
8.097243792E0,-4.230203247E-1,2.902015228E0,6.752607880E0,7.361952985E0
8.107286792E0,-8.337661743E-2,3.153641968E0,6.799011383E0,7.495262845E0
8.117329792E0,2.243833923E-1,3.496279449E0,6.958280182E0,7.790505823E0
8.127372792E0,4.409829712E-1,3.706741791E0,7.111411743E0,8.031598699E0
8.137415792E0,4.900808716E-1,3.763623505E0,7.235204315E0,8.170264538E0
8.147458792E0,3.799099731E-1,3.663631439E0,7.270979919E0,8.150685609E0
8.157501792E0,2.010319519E-1,3.473377075E0,7.263196106E0,8.053494883E0
8.167544792E0,2.245330811E-2,3.343896332E0,7.424859924E0,8.143137708E0
8.177587792E0,-2.212399292E-1,3.247945862E0,7.785909119E0,8.439104232E0
8.187630792E0,-4.388873291E-1,3.182831268E0,8.215216370E0,8.821157349E0
8.197673792E0,-5.869294739E-1,3.184178467E0,8.601562958E0,9.190776030E0
8.207716792E0,-6.168672180E-1,3.262765045E0,8.890462189E0,9.490336076E0
8.217759792E0,-4.249662781E-1,3.481011200E0,8.953630829E0,9.615900391E0
8.227802792E0,-3.281176758E-1,3.790717163E0,8.844807129E0,9.628489548E0
8.237845792E0,-1.713935852E-1,4.000580750E0,8.645421753E0,9.527714279E0
8.247888792E0,-1.287322998E-2,4.204456787E0,8.497678986E0,9.480937229E0
8.257931792E0,9.265731812E-2,4.410428467E0,8.569379883E0,9.638191543E0
8.267974792E0,1.618135071E-1,4.552632751E0,8.841813354E0,9.946371800E0
8.278017792E0,-8.726852417E-2,4.539460144E0,9.181457062E0,1.024272757E1
8.288060792E0,-3.356021118E-1,4.332141266E0,9.544751587E0,1.048724747E1
8.298103792E0,-4.695735168E-1,4.095633087E0,9.869576111E0,1.069594513E1
8.308146792E0,-5.155279541E-1,3.995491333E0,1.004800507E1,1.082553120E1
8.318188792E0,-5.423222351E-1,4.027973785E0,1.011237122E1,1.089856586E1
8.328231792E0,-6.042933655E-1,4.195325775E0,1.019904099E1,1.104474381E1
8.338274792E0,-6.237528992E-1,4.391717377E0,1.026789780E1,1.118507820E1
8.348317792E0,-8.138575745E-1,4.521347809E0,1.038555313E1,1.135626100E1
8.358360792E0,-1.044827271E0,4.505780182E0,1.051877609E1,1.149079499E1
8.368403792E0,-1.156794434E0,4.387077026E0,1.056368271E1,1.149678262E1
8.378446792E0,-1.070573730E0,4.177662506E0,1.040097107E1,1.125962661E1
8.388489792E0,-1.014590149E0,3.982169037E0,1.025592270E1,1.104857519E1
8.398532792E0,-7.496411133E-1,3.926335144E0,1.043704605E1,1.117631423E1
8.408575792E0,-4.345463562E-1,3.789070587E0,1.115570160E1,1.178963802E1
8.418618792E0,-3.619473267E-1,3.557053070E0,1.220876175E1,1.272153669E1
8.428661792E0,-6.262976074E-1,3.170407104E0,1.303953415E1,1.343403070E1
8.438704792E0,-9.144483948E-1,2.737357635E0,1.322215439E1,1.353346627E1
8.448747792E0,-1.157393188E0,2.526895294E0,1.273776169E1,1.303745879E1
8.458790792E0,-1.257085876E0,2.596650238E0,1.184142563E1,1.218778972E1
8.468833792E0,-1.098415833E0,2.930905151E0,1.085377945E1,1.129607236E1
8.478876792E0,-5.528004456E-1,3.302432556E0,1.006372238E1,1.060613772E1
8.488919792E0,5.044509888E-2,3.492686920E0,9.536818085E0,1.015639236E1
8.498962792E0,5.195695496E-1,3.522325287E0,9.219927063E0,9.883510661E0
8.509005792E0,8.164022827E-1,3.492686920E0,9.082213440E0,9.764833618E0
8.519048792E0,9.758207703E-1,3.467988281E0,8.941955109E0,9.640421674E0
8.529091792E0,1.025517426E0,3.401975555E0,8.746012573E0,9.440225612E0
8.539134792E0,9.547146606E-1,3.362308044E0,8.611741791E0,9.294013780E0
8.549177792E0,9.485774231E-1,3.397784271E0,8.490344238E0,9.194056905E0
8.559220792E0,1.069974976E0,3.495830383E0,8.298293610E0,9.067929937E0
8.569263792E0,1.124012604E0,3.558400269E0,7.989485779E0,8.818021309E0
8.579306792E0,9.618997192E-1,3.528761902E0,7.696395264E0,8.521262329E0
8.589349792E0,6.900650024E-1,3.367098083E0,7.570357361E0,8.314075402E0
8.599392792E0,3.782633972E-1,3.160976715E0,7.482340393E0,8.131437434E0
8.609435792E0,4.326004028E-2,2.937940521E0,7.380402374E0,7.943784057E0
8.619478792E0,-2.568658447E-1,2.778971100E0,7.240443420E0,7.759683071E0
8.629521792E0,-6.104306030E-1,2.680176544E0,7.154073029E0,7.663989348E0
8.639564792E0,-7.288343811E-1,2.637664948E0,7.143145752E0,7.649379528E0
8.649607792E0,-6.737489319E-1,2.700983276E0,7.176825714E0,7.697796803E0
8.659650792E0,-4.761598206E-1,2.911744995E0,7.150031433E0,7.734852073E0
8.669693792E0,-2.971321106E-1,3.210972748E0,6.997348938E0,7.704643122E0
8.679736792E0,-1.148112488E-1,3.501817932E0,6.766828308E0,7.620096837E0
8.689779792E0,5.089416504E-2,3.697910156E0,6.559210052E0,7.529964559E0
8.699822792E0,4.370910645E-2,3.819756775E0,6.441854095E0,7.489321497E0
8.709865792E0,-1.242416382E-2,3.869303741E0,6.420448608E0,7.496254140E0
8.719908792E0,-3.652404785E-2,3.911965027E0,6.512656860E0,7.597335306E0
8.729951792E0,-1.390608215E-1,3.896547089E0,6.660699005E0,7.717987326E0
8.739994792E0,-3.192860413E-1,3.923191681E0,6.957681427E0,7.993916899E0
8.750037792E0,-4.828958130E-1,4.006568298E0,7.248526611E0,8.296198884E0
8.760080792E0,-5.077441406E-1,4.052522736E0,7.516918488E0,8.554811990E0
8.770123792E0,-3.920347595E-1,4.205654297E0,7.938741302E0,8.992487575E0
8.780166708E0,-3.165916443E-1,4.390370178E0,8.264613647E0,9.363728921E0
8.790209708E0,-1.992356873E-1,4.536616058E0,8.501121826E0,9.637927808E0
8.800252708E0,-1.190025330E-1,4.654570770E0,8.739426270E0,9.902361445E0
8.810295708E0,-1.592687988E-1,4.703818359E0,8.876092072E0,1.004670514E1
8.820338708E0,-2.935395813E-1,4.721182251E0,9.049132233E0,1.021090209E1
8.830381708E0,-3.826043701E-1,4.817432098E0,9.341324615E0,1.051733729E1
8.840424708E0,-5.891748047E-1,4.857099609E0,9.595945129E0,1.077129085E1
8.850467708E0,-9.759704590E-1,4.774920502E0,9.971364441E0,1.109867077E1
8.860510708E0,-1.274898834E0,4.614304504E0,1.045470932E1,1.149861383E1
8.870553708E0,-1.317410431E0,4.369264069E0,1.078582077E1,1.171153143E1
8.880596708E0,-1.456022186E0,4.127666473E0,1.094598770E1,1.178865038E1
8.890639708E0,-1.511257324E0,3.979774017E0,1.092682755E1,1.172680946E1
8.900682708E0,-1.439855804E0,4.012106781E0,1.078626984E1,1.159800856E1
8.910725708E0,-1.289718018E0,4.285737762E0,1.056847275E1,1.147708748E1
8.920768708E0,-1.112486572E0,4.741240540E0,1.034094589E1,1.143031715E1
8.930811708E0,-9.220825195E-1,5.141208801E0,1.010234207E1,1.137275602E1
8.940854708E0,-5.897735596E-1,5.367089081E0,1.003842499E1,1.139839701E1
8.950897708E0,-3.507206726E-1,5.219046936E0,1.047791107E1,1.171102371E1
8.960940708E0,-5.899232483E-1,4.562512207E0,1.153621033E1,1.241968904E1
8.970982708E0,-1.266516266E0,3.573518829E0,1.265109192E1,1.320697645E1
8.981025708E0,-2.046095123E0,2.707569580E0,1.303414536E1,1.346871870E1
8.991068708E0,-2.449356537E0,2.367027740E0,1.247835114E1,1.293489137E1
9.001111708E0,-2.173480225E0,2.646496582E0,1.090961334E1,1.143449272E1
9.011154708E0,-1.665137329E0,3.462749176E0,9.092092896E0,9.870636626E0
9.021197708E0,-1.135987701E0,4.258344727E0,7.859256592E0,9.010653808E0
9.031240708E0,-7.137158203E-1,4.574786682E0,7.310797119E0,8.653659225E0
9.041283708E0,-7.212002563E-1,4.282743988E0,7.364535370E0,8.549760645E0
9.051326708E0,-1.086740112E0,3.628005524E0,7.940088501E0,8.797069600E0
9.061369708E0,-1.455722809E0,2.901117096E0,8.866661682E0,9.442102451E0
9.071412708E0,-1.666933594E0,2.392774200E0,9.659113770E0,1.008972323E1
9.081455708E0,-1.783391418E0,2.185754700E0,1.002764740E1,1.041689594E1
9.091498708E0,-1.602717133E0,2.229763184E0,9.978100433E0,1.034905959E1
9.101541708E0,-1.171014862E0,2.531236267E0,9.617200928E0,1.001344029E1
9.111584708E0,-6.816824341E-1,2.975063324E0,9.179660797E0,9.673772019E0
9.121627708E0,-4.849914551E-1,3.246898041E0,9.025331726E0,9.603862575E0
9.131670708E0,-5.547463989E-1,3.211870880E0,9.158704376E0,9.721405452E0
9.141713708E0,-6.924600220E-1,2.963986359E0,9.295669556E0,9.781318342E0
9.151756708E0,-8.574169922E-1,2.712958374E0,9.226363678E0,9.655107133E0
9.161799708E0,-9.369017029E-1,2.570604401E0,8.988059235E0,9.395264796E0
9.171842708E0,-8.105644226E-1,2.611319733E0,8.635542297E0,9.058068017E0
9.181885708E0,-4.231700134E-1,2.851719818E0,8.240663452E0,8.730401647E0
9.191928708E0,-2.544708252E-2,3.206931152E0,7.860005035E0,8.489095012E0
9.201971708E0,1.923500061E-1,3.576213226E0,7.633376312E0,8.431769298E0
9.212014708E0,2.769241333E-1,3.836372223E0,7.457342377E0,8.390851812E0
9.222057708E0,2.718347168E-1,3.902983704E0,7.271878052E0,8.257565398E0
9.232100708E0,1.499880981E-1,3.856280823E0,7.133116608E0,8.110163423E0
9.242143708E0,-1.233435059E-1,3.723806305E0,7.120991821E0,8.036819740E0
9.252186708E0,-4.406835938E-1,3.489842834E0,7.300019531E0,8.103301191E0
9.262229708E0,-6.807843018E-1,3.323388977E0,7.566166077E0,8.291878596E0
9.272272708E0,-8.057743835E-1,3.258124695E0,7.743696899E0,8.439756546E0
9.282315708E0,-6.945556641E-1,3.359613647E0,7.836653595E0,8.554680064E0
9.292358708E0,-5.047503662E-1,3.629352722E0,8.031997375E0,8.828360887E0
9.302401708E0,-2.833607483E-1,3.875740356E0,8.317453766E0,9.180506183E0
9.312444708E0,-1.013392639E-1,4.035308533E0,8.494984589E0,9.405251074E0
9.322487708E0,-1.020877075E-1,4.172573090E0,8.568182373E0,9.530715465E0
9.332530708E0,-1.989363098E-1,4.252955933E0,8.572373657E0,9.571457566E0
9.342573708E0,-2.148033142E-1,4.259093170E0,8.460256805E0,9.474278881E0
9.352616708E0,-2.276765442E-1,4.304299164E0,8.265661469E0,9.322016274E0
9.362659708E0,-2.697390747E-1,4.378544769E0,8.211923218E0,9.310214627E0
9.372702708E0,-3.219804382E-1,4.387077026E0,8.235723724E0,9.336876432E0
9.382745708E0,-3.568579102E-1,4.334985352E0,8.566984863E0,9.607948543E0
9.392788708E0,-4.355941772E-1,4.309538269E0,9.251062317E0,1.021489189E1
9.402831708E0,-4.578977966E-1,4.193080444E0,9.924062805E0,1.078325631E1
9.412874708E0,-4.950205994E-1,4.028273163E0,1.033226395E1,1.110079764E1
9.422917708E0,-7.051835632E-1,3.991449738E0,1.056922119E1,1.131977877E1
9.432960708E0,-9.445358276E-1,4.010160828E0,1.052341644E1,1.130114293E1
9.443003708E0,-1.293909302E0,4.084256744E0,1.017299515E1,1.103835063E1
9.453046708E0,-1.519190826E0,4.270319824E0,9.727970581E0,1.073205403E1
9.463089708E0,-1.407822418E0,4.480183411E0,9.579030304E0,1.066826269E1
9.473132708E0,-1.080902252E0,4.583768005E0,9.649234314E0,1.073717848E1
9.483175708E0,-7.701484680E-1,4.596192169E0,9.846074982E0,1.089326873E1
9.493218708E0,-5.728587341E-1,4.556225281E0,1.042776535E1,1.139410576E1
9.503261708E0,-2.956352234E-1,4.382137299E0,1.124356888E1,1.207097215E1
9.513304708E0,-6.466552734E-2,4.256548462E0,1.180609909E1,1.255015387E1
9.523347708E0,7.813751221E-2,4.164190521E0,1.206446182E1,1.276314331E1
9.533390708E0,1.163081360E-1,4.091142426E0,1.205533081E1,1.273114193E1
9.543433708E0,3.098556519E-2,3.927083588E0,1.191297684E1,1.254360246E1
9.553476708E0,-2.534230042E-1,3.642974396E0,1.163530426E1,1.219490840E1
9.563519708E0,-5.836363220E-1,3.477268982E0,1.097951797E1,1.153177549E1
9.573562708E0,-7.982899475E-1,3.525917816E0,1.011761032E1,1.074408683E1
9.583605708E0,-7.614665222E-1,3.710633698E0,9.456435242E0,1.018689360E1
9.593648708E0,-6.469546509E-1,3.719016266E0,8.976832581E0,9.738231641E0
9.603691708E0,-4.731660461E-1,3.535797272E0,8.670569458E0,9.375741207E0
9.613734708E0,-3.055146790E-1,3.329975281E0,8.863218842E0,9.473052455E0
9.623777708E0,-1.134640503E-1,3.168760529E0,9.344019012E0,9.867350642E0
9.633820708E0,6.047424316E-2,3.043620758E0,9.600585480E0,1.007166947E1
9.643863708E0,1.520837402E-1,3.048410797E0,9.480834503E0,9.960028149E0
9.653906708E0,1.104702759E-1,3.155587921E0,8.986412659E0,9.524996130E0
9.663949708E0,1.447489929E-1,3.336860962E0,8.328530731E0,8.973294684E0
9.673992708E0,1.507365417E-1,3.583248596E0,7.632627869E0,8.433231895E0
9.684035708E0,1.065783691E-1,3.743565216E0,6.991511078E0,7.931384912E0
9.694078708E0,3.053649902E-2,3.770359497E0,6.579567719E0,7.583353782E0
9.704121708E0,-3.110531616E-1,3.719165955E0,6.454278259E0,7.455646003E0
9.714164708E0,-6.875202942E-1,3.544479218E0,6.434070282E0,7.377891126E0
9.724207708E0,-9.651928711E-1,3.320245514E0,6.431974640E0,7.302460224E0
9.734250708E0,-1.151854706E0,3.159629517E0,6.522686005E0,7.338627982E0
9.744292708E0,-1.068927155E0,3.105891266E0,6.649771729E0,7.416780289E0
9.754335708E0,-9.803114319E-1,3.130589905E0,6.732100525E0,7.488843778E0
9.764378708E0,-7.816744995E-1,3.179837494E0,6.819069672E0,7.564528584E0
9.774421708E0,-5.632786560E-1,3.293600922E0,6.922504578E0,7.686752208E0
9.784464833E0,-4.194277954E-1,3.393443298E0,6.989116058E0,7.780688939E0
9.794507833E0,-2.668949890E-1,3.433410187E0,7.002438354E0,7.803440354E0
9.804550833E0,-2.862048340E-1,3.504811707E0,7.140002289E0,7.958972986E0
9.814593833E0,-4.746629333E-1,3.627556458E0,7.518864441E0,8.361686028E0
9.824636833E0,-6.162684631E-1,3.660937042E0,7.895181885E0,8.724456650E0
9.834679833E0,-6.800358582E-1,3.675307159E0,8.153394928E0,8.969290961E0
9.844722833E0,-6.801855469E-1,3.748804321E0,8.492140503E0,9.307665472E0
9.854765833E0,-5.760021973E-1,3.850442963E0,8.906927948E0,9.720650956E0
9.864808833E0,-3.535647583E-1,3.966451721E0,9.071136475E0,9.906728231E0
9.874851833E0,-2.758763123E-1,4.070186005E0,9.045988770E0,9.923327802E0
9.884894833E0,-3.035687256E-1,4.222718811E0,9.080566864E0,1.001899210E1
9.894937833E0,-2.103126526E-1,4.377496948E0,9.236243134E0,1.022325282E1
9.904980833E0,-1.706451416E-1,4.529880066E0,9.298214264E0,1.034435700E1
9.915023833E0,-1.115180969E-1,4.688101044E0,9.251062317E0,1.037173475E1
9.925066833E0,-1.263372803E-1,4.896617432E0,9.263636169E0,1.047892067E1
9.935109833E0,-1.881587219E-1,5.034031677E0,9.094936981E0,1.039686286E1
9.945152833E0,-2.029779053E-1,5.002147980E0,8.796008606E0,1.012089185E1
9.955195833E0,-2.246827698E-1,4.944667511E0,8.692124634E0,1.000266214E1
9.965238833E0,-2.609074402E-1,4.844076691E0,8.802594910E0,1.005081235E1
9.975281833E0,-3.246748352E-1,4.583169250E0,9.082063751E0,1.017814994E1
9.985324833E0,-4.999603271E-1,4.185895386E0,9.597292328E0,1.048235186E1
9.995367833E0,-8.497828674E-1,3.622916107E0,1.022927811E1,1.088511748E1
1.000541083E1,-1.379980316E0,3.272644501E0,1.070139633E1,1.127539051E1
1.001545383E1,-1.983824615E0,3.242856445E0,1.075244019E1,1.140467658E1
1.002549683E1,-2.181563416E0,3.496129761E0,1.043794418E1,1.122197937E1
1.003553983E1,-1.982776794E0,4.095633087E0,1.005653732E1,1.103809572E1
1.004558283E1,-1.724563751E0,4.933590546E0,9.923164673E0,1.121533026E1
1.005562583E1,-1.374142456E0,5.532495117E0,1.021071671E1,1.169425095E1
1.006566883E1,-1.048569489E0,5.478457489E0,1.089389603E1,1.223887107E1
1.007571183E1,-1.228944397E0,4.857848053E0,1.178155014E1,1.280288701E1
1.008575483E1,-1.760788422E0,4.018992462E0,1.239587265E1,1.314953745E1
1.009579783E1,-2.261497192E0,3.360960846E0,1.248134491E1,1.312228631E1
1.010584083E1,-2.402354279E0,3.259172516E0,1.197539703E1,1.264134667E1
1.011588383E1,-2.054777069E0,3.594475250E0,1.055919205E1,1.134190891E1
1.012592683E1,-1.623673553E0,4.238585815E0,8.968450012E0,1.005161784E1
1.013596983E1,-1.113235016E0,4.737198944E0,7.881111145E0,9.262411075E0
1.014601283E1,-8.282276917E-1,4.701722717E0,7.422464905E0,8.825255967E0
1.015605583E1,-9.268725586E-1,4.221521301E0,7.520511017E0,8.674008346E0
1.016609883E1,-1.197659454E0,3.524570618E0,8.113577728E0,8.926764798E0
1.017614183E1,-1.380728760E0,2.891836395E0,9.086704102E0,9.635212560E0
1.018618483E1,-1.437311096E0,2.375559998E0,9.868378601E0,1.025153865E1
1.019622783E1,-1.576671295E0,2.027384033E0,1.015533188E1,1.047506296E1
1.020627083E1,-1.607058105E0,1.841919708E0,1.006102798E1,1.035372339E1
1.021631383E1,-1.418749695E0,1.976040802E0,9.766739960E0,1.006512779E1
1.022635683E1,-1.135388947E0,2.336341553E0,9.368567963E0,9.722019625E0
1.023639983E1,-9.297166443E-1,2.648442535E0,9.213041382E0,9.631134534E0
1.024644283E1,-8.907975769E-1,2.755769348E0,9.245224457E0,9.688238244E0
1.025648583E1,-1.130299530E0,2.631078644E0,9.218579865E0,9.653101397E0
1.026652883E1,-1.339115295E0,2.510429535E0,9.098379822E0,9.532890517E0
1.027657183E1,-1.419647827E0,2.520308990E0,8.745264130E0,9.211243242E0
1.028661483E1,-1.183738403E0,2.709515533E0,8.194409637E0,8.711547528E0
1.029665783E1,-6.924600220E-1,3.125051422E0,7.673792267E0,8.314597707E0
1.030670083E1,-6.616241455E-2,3.597019958E0,7.165299683E0,8.017758389E0
1.031674383E1,3.073109436E-1,3.955674133E0,6.797664185E0,7.870834532E0
1.032678683E1,3.623963928E-1,4.057911530E0,6.700665894E0,7.841995954E0
1.033682983E1,1.577719116E-1,3.816014557E0,7.034471741E0,8.004414516E0
1.034687283E1,-2.665956116E-1,3.439248047E0,7.684270477E0,8.423034674E0
1.035691583E1,-6.483018494E-1,3.090473328E0,8.182284851E0,8.770467836E0
1.036695883E1,-9.208850098E-1,2.908900909E0,8.363408203E0,8.902602455E0
1.037700183E1,-9.871971130E-1,2.965782623E0,8.343798981E0,8.910073296E0
1.038704483E1,-8.184979248E-1,3.210823059E0,8.276888123E0,8.915503382E0
1.039708783E1,-5.367837524E-1,3.534150696E0,8.164920959E0,8.913152765E0
1.040713083E1,-2.927911377E-1,3.805835724E0,8.060887299E0,8.918969461E0
1.041717383E1,-1.613644409E-1,3.914210358E0,8.035889282E0,8.939943946E0
1.042721683E1,-1.667532349E-1,3.970643005E0,8.130193176E0,9.049522286E0
1.043725983E1,-2.338137817E-1,4.021537170E0,8.216264191E0,9.150651744E0
1.044730283E1,-2.878514099E-1,4.123624878E0,8.142916718E0,9.132044308E0
1.045734583E1,-3.089575195E-1,4.331692200E0,7.916287994E0,9.029209693E0
1.046738883E1,-2.531236267E-1,4.528083801E0,7.646997986E0,8.890680102E0
1.047743183E1,-2.499801636E-1,4.661606140E0,7.439379730E0,8.782791849E0
1.048747483E1,-3.838018799E-1,4.641996918E0,7.605683899E0,8.918624717E0
1.049751783E1,-5.553451538E-1,4.564158783E0,8.172854462E0,9.377393225E0
1.050756083E1,-5.700146484E-1,4.429438934E0,8.948391724E0,1.000092798E1
1.051760383E1,-3.974235535E-1,4.328848114E0,9.546248474E0,1.048941044E1
1.052764683E1,-3.344046021E-1,4.321962433E0,9.863887939E0,1.077438959E1
1.053768983E1,-1.163081360E-1,4.282594299E0,9.936486969E0,1.082071693E1
1.054773283E1,-2.622546387E-1,4.257446594E0,1.019589752E1,1.105219233E1
1.055777583E1,-7.072792053E-1,4.111949158E0,1.065678909E1,1.144445383E1
1.056781883E1,-1.024170227E0,3.837270355E0,1.110615463E1,1.179492430E1
1.057786183E1,-1.385518799E0,3.647015991E0,1.139849670E1,1.204766015E1
1.058790483E1,-1.520238647E0,3.719465332E0,1.145238464E1,1.213683080E1
1.059794783E1,-1.132694550E0,3.989803162E0,1.130509094E1,1.204186893E1
1.060799083E1,-5.099894714E-1,4.312082977E0,1.103325623E1,1.185693433E1
1.061803383E1,1.209484863E-1,4.558171234E0,1.082563797E1,1.174674385E1
1.062807683E1,8.388555908E-1,4.770878906E0,1.083596649E1,1.186942012E1
1.063811983E1,1.314716034E0,5.036277008E0,1.076157120E1,1.195424523E1
1.064816283E1,1.404080200E0,5.024451599E0,1.046249313E1,1.169103578E1
1.065820583E1,7.899073792E-1,4.678520966E0,1.002540207E1,1.109149218E1
1.066824883E1,-3.709286499E-1,4.109703827E0,9.828711090E0,1.065977557E1
1.067829183E1,-1.235231323E0,3.460054779E0,1.003168900E1,1.068328412E1
1.068833483E1,-1.764081573E0,2.960244141E0,1.023751099E1,1.080192855E1
1.069837783E1,-1.871408386E0,2.905907135E0,1.011611343E1,1.069028609E1
1.070842083E1,-1.504820709E0,3.178190918E0,9.513915710E0,1.014297664E1
1.071846383E1,-8.713380432E-1,3.606600037E0,8.811276855E0,9.560616802E0
1.072850683E1,-1.197509766E-3,3.915258179E0,8.504714355E0,9.362660643E0
1.073854983E1,7.201524353E-1,3.930376740E0,8.748856659E0,9.618158539E0
1.074859283E1,9.714797974E-1,3.722309418E0,9.406888275E0,1.016311505E1
1.075863483E1,9.068142700E-1,3.428171082E0,1.004306534E1,1.065071972E1
1.076867783E1,8.071215820E-1,3.151845703E0,1.019410126E1,1.070071386E1
1.077872096E1,7.358697510E-1,3.109184418E0,9.960137787E0,1.046006103E1
1.078876396E1,6.985972595E-1,3.379522247E0,9.239685974E0,9.863113385E0
1.079880696E1,6.818321228E-1,3.757785645E0,8.278235321E0,9.116744376E0
1.080884996E1,6.511459351E-1,4.032015381E0,7.580087128E0,8.610392553E0
1.081889296E1,6.053411865E-1,4.148622894E0,7.445666656E0,8.544908533E0
1.082893596E1,4.870870972E-1,4.115691376E0,7.644752655E0,8.695884802E0
1.083897896E1,8.831634521E-2,3.914509735E0,7.717351685E0,8.653825932E0
1.084902196E1,-2.447410583E-1,3.530109100E0,7.604187012E0,8.387206243E0
1.085906496E1,-4.912783813E-1,3.135829010E0,7.428452454E0,8.078160922E0
1.086910796E1,-7.554789734E-1,2.837649078E0,7.430697784E0,7.989885502E0
1.087915096E1,-9.816586304E-1,2.611768799E0,7.599396973E0,8.095419957E0
1.088919396E1,-1.098565521E0,2.482138367E0,7.863148499E0,8.318471097E0
1.089923696E1,-1.001866608E0,2.490670624E0,8.095764771E0,8.529278051E0
1.090927996E1,-7.625143433E-1,2.718047791E0,8.146060181E0,8.621340289E0
1.091932296E1,-4.818479919E-1,3.041525116E0,7.951015778E0,8.526529447E0
1.092936596E1,-3.164419556E-1,3.330274658E0,7.615263977E0,8.317638502E0
1.093940896E1,-1.239422607E-1,3.506607971E0,7.322023773E0,8.119340693E0
1.094945196E1,-6.107299805E-2,3.631897430E0,7.121889954E0,7.994731100E0
1.095949496E1,-1.279838562E-1,3.739523621E0,6.983727264E0,7.922932745E0
1.096953796E1,-2.531236267E-1,3.816014557E0,6.821913757E0,7.820776559E0
1.097958096E1,-3.793112183E-1,3.825894012E0,6.669680328E0,7.698439951E0
1.098962396E1,-3.971241760E-1,3.854634247E0,6.638245697E0,7.686495868E0
1.099966696E1,-3.556604004E-1,3.990551605E0,6.828500061E0,7.917032873E0
1.100970996E1,-2.772235107E-1,4.134851532E0,7.150330811E0,8.264446791E0
1.101975296E1,-2.429447937E-1,4.209845581E0,7.616012421E0,8.705484891E0
1.102979596E1,-2.712359619E-1,4.247118073E0,8.133186951E0,9.179341526E0
1.103983896E1,-3.445834351E-1,4.281247101E0,8.402626648E0,9.436734025E0
1.104988196E1,-3.842509460E-1,4.435426483E0,8.543034668E0,9.633488372E0
1.105992496E1,-2.655477905E-1,4.659510498E0,8.516689453E0,9.711619481E0
1.106996796E1,-1.652563477E-1,4.878056030E0,8.380323029E0,9.698069620E0
1.108001096E1,-1.460961914E-1,5.007387085E0,8.293802948E0,9.689294962E0
1.109005396E1,-2.679428101E-1,4.998405762E0,8.514743500E0,9.877080053E0
1.110009696E1,-4.942721558E-1,4.885839844E0,8.919651489E0,1.018213723E1
1.111013996E1,-8.659492493E-1,4.719685364E0,9.444609833E0,1.059367514E1
1.112018296E1,-1.178798676E0,4.576283569E0,1.011611343E1,1.116546858E1
1.113022596E1,-1.204994202E0,4.504133606E0,1.050216064E1,1.149063135E1
1.114026896E1,-1.031654663E0,4.563110962E0,1.039004379E1,1.139470504E1
1.115031196E1,-7.967930603E-1,4.709506531E0,9.987530823E0,1.107091247E1
1.116035496E1,-7.783813477E-1,4.810546417E0,9.868677979E0,1.100627273E1
1.117039796E1,-9.168434143E-1,4.686903534E0,1.011716125E1,1.118769943E1
1.118044096E1,-1.216969299E0,4.493655396E0,1.052476364E1,1.150845788E1
1.119048396E1,-1.637594604E0,4.413571930E0,1.083372116E1,1.181231762E1
1.120052696E1,-1.899400177E0,4.491859131E0,1.088192093E1,1.192479445E1
1.121056996E1,-1.920506287E0,4.840783539E0,1.067310516E1,1.187588748E1
1.122061296E1,-1.781146088E0,5.267845459E0,1.039618103E1,1.178996426E1
1.123065596E1,-1.534159698E0,5.459447021E0,1.020607635E1,1.167575275E1
1.124069896E1,-1.368454285E0,5.272635498E0,1.039947418E1,1.173977919E1
1.125074196E1,-1.272204437E0,4.905898132E0,1.103699844E1,1.214502677E1
1.126078496E1,-1.369352417E0,4.417912903E0,1.167871399E1,1.256126749E1
1.127082796E1,-1.623972931E0,3.824397125E0,1.188154221E1,1.258707061E1
1.128087096E1,-1.863774261E0,3.327131195E0,1.174188263E1,1.234565771E1
1.129091396E1,-1.971400452E0,3.115022278E0,1.127650040E1,1.186377869E1
1.130095696E1,-2.001188507E0,3.170556793E0,1.045485901E1,1.110681155E1
1.131099996E1,-2.048789520E0,3.345991974E0,9.655072174E0,1.042178581E1
1.132104296E1,-2.016456757E0,3.429967346E0,9.173822937E0,9.999490043E0
1.133108596E1,-1.863325195E0,3.399281158E0,9.087302856E0,9.879583310E0
1.134112896E1,-1.634151764E0,3.298989716E0,9.336534576E0,1.003616775E1
1.135117196E1,-1.425186310E0,3.102149048E0,9.848020935E0,1.042295549E1
1.136121496E1,-1.282682648E0,2.799927521E0,1.031385223E1,1.076384768E1
1.137125796E1,-1.348845062E0,2.543211365E0,1.049527496E1,1.088292716E1
1.138130096E1,-1.377285919E0,2.374512177E0,1.044572800E1,1.080039157E1
1.139134396E1,-1.232686615E0,2.316432953E0,1.027253815E1,1.060237794E1
1.140138696E1,-1.088087311E0,2.365530853E0,1.001462448E1,1.034757816E1
1.141142996E1,-1.021775208E0,2.506238251E0,9.583970032E0,9.958801952E0
1.142147296E1,-9.315129089E-1,2.667303314E0,8.823251953E0,9.264556023E0
1.143151596E1,-8.710386658E-1,2.808160400E0,8.050109711E0,8.570224008E0
1.144155896E1,-6.951544189E-1,2.935844879E0,7.455695801E0,8.042998489E0
1.145160196E1,-5.234614563E-1,3.070415039E0,7.039710846E0,7.697986048E0
1.146164496E1,-4.150868225E-1,3.180436249E0,6.859785004E0,7.572590184E0
1.147168796E1,-3.977229309E-1,3.307821350E0,6.895560608E0,7.658238813E0
1.148173096E1,-3.516188049E-1,3.395688629E0,6.899302826E0,7.697708525E0
1.149177396E1,-2.824626160E-1,3.440744934E0,6.824009399E0,7.647588843E0
1.150181696E1,-2.219883728E-1,3.517235870E0,6.677913208E0,7.550811335E0
1.151185996E1,-2.279759216E-1,3.610491943E0,6.636150055E0,7.558181835E0
1.152190296E1,-1.628613281E-1,3.602558441E0,6.624923401E0,7.542848348E0
1.153194596E1,-2.634521484E-2,3.546425171E0,6.597230988E0,7.490078923E0
1.154198896E1,9.879455566E-3,3.572920074E0,6.798412628E0,7.680121726E0
1.155203196E1,-7.170089722E-2,3.641178131E0,7.156018982E0,8.029441255E0
1.156207496E1,-1.020877075E-1,3.665876770E0,7.357500000E0,8.220819950E0
1.157211796E1,-1.549278259E-1,3.673061829E0,7.452851715E0,8.310257789E0
1.158216096E1,-3.504212952E-1,3.650159454E0,7.562124481E0,8.404295675E0
1.159220396E1,-4.593946838E-1,3.629652100E0,7.868986359E0,8.677923954E0
1.160224696E1,-5.569917297E-1,3.686533813E0,8.180787964E0,8.990331643E0
1.161228996E1,-6.894662476E-1,3.756139069E0,8.441246338E0,9.264911448E0
1.162233296E1,-6.809339905E-1,3.869902496E0,8.698261871E0,9.544609788E0
1.163237596E1,-5.004093933E-1,4.150419159E0,8.849148102E0,9.786920398E0
1.164241896E1,-3.261717224E-1,4.439617767E0,8.661438446E0,9.738434672E0
1.165246196E1,-1.922003174E-1,4.667743378E0,8.224646759E0,9.458836266E0
1.166250496E1,-3.592529297E-2,4.863985291E0,7.986192627E0,9.350877831E0
1.167254796E1,7.574249268E-2,5.069208527E0,8.151748352E0,9.599667349E0
1.168259096E1,-4.640350342E-3,5.156177673E0,8.522377625E0,9.960778589E0
1.169263396E1,-1.333726501E-1,5.078189850E0,8.898246002E0,1.024619843E1
1.170267696E1,-2.189945984E-1,4.908891907E0,9.121282196E0,1.036064512E1
1.171271996E1,-2.686912537E-1,4.742288361E0,9.377848663E0,1.051216150E1
1.172276296E1,-3.442840576E-1,4.642895050E0,9.966724091E0,1.100048158E1
1.173280596E1,-4.210743713E-1,4.402794342E0,1.062206131E1,1.150608918E1
1.174284896E1,-6.075865173E-1,4.157903595E0,1.110525650E1,1.187367027E1
1.175289196E1,-8.934919739E-1,4.091292114E0,1.129116989E1,1.204273709E1
1.176293496E1,-1.064436493E0,4.258644104E0,1.112516510E1,1.195986510E1
1.177297796E1,-8.815168762E-1,4.569846954E0,1.087713089E1,1.183099952E1
1.178302129E1,-4.284091187E-1,4.898563385E0,1.067190765E1,1.175027960E1
1.179306429E1,1.305285645E-1,5.112917633E0,1.053584061E1,1.171165666E1
1.180310729E1,4.888833618E-1,5.136418762E0,1.046384033E1,1.166678015E1
1.181315029E1,6.596781921E-1,4.875511322E0,1.060349991E1,1.168931120E1
1.182319329E1,6.641688538E-1,4.440216522E0,1.102711899E1,1.190604872E1
1.183323629E1,4.665797424E-1,3.958518219E0,1.173080566E1,1.238948605E1
1.184327929E1,1.487905884E-1,3.515888672E0,1.245005997E1,1.293783618E1
1.185332229E1,-2.788700867E-1,3.135529633E0,1.275093430E1,1.313375955E1
1.186336529E1,-7.153623962E-1,2.880909119E0,1.255439301E1,1.290054900E1
1.187340829E1,-8.656498718E-1,2.844834137E0,1.207748474E1,1.243816983E1
1.188345129E1,-7.098239136E-1,2.998265076E0,1.146331192E1,1.187017117E1
1.189349429E1,-3.010240173E-1,3.286266174E0,1.065439407E1,1.115375604E1
1.190353729E1,1.908531189E-1,3.591331787E0,9.900262299E0,1.053324653E1
1.191358029E1,7.777825928E-1,3.753145294E0,9.470356293E0,1.021658914E1
1.192362329E1,1.224902802E0,3.726949768E0,9.284592590E0,1.007939487E1
1.193366629E1,1.449585571E0,3.549119568E0,9.354048157E0,1.010919210E1
1.194370929E1,1.567091217E0,3.331472168E0,9.612710266E0,1.029362329E1
1.195375229E1,1.553319855E0,3.080593872E0,9.711804199E0,1.030640587E1
1.196379529E1,1.380130005E0,2.949316864E0,9.568402405E0,1.010730198E1
1.197383829E1,1.109043732E0,2.915038147E0,9.173822937E0,9.689502189E0
1.198388129E1,8.321195984E-1,2.962938538E0,8.487949219E0,9.028660462E0
1.199392429E1,6.134243774E-1,3.055446167E0,7.695347443E0,8.302434162E0
1.200396729E1,4.549040222E-1,3.158581696E0,6.996600494E0,7.689993139E0
1.201401029E1,2.773731995E-1,3.253933411E0,6.520440674E0,7.292541746E0
1.202405329E1,9.370513916E-2,3.232827301E0,6.177204437E0,6.972647106E0
1.203409629E1,-1.366658020E-1,3.183579712E0,6.017037506E0,6.808714833E0
1.204413929E1,-3.776646423E-1,3.085383911E0,6.078709259E0,6.827366309E0
1.205418229E1,-6.556365967E-1,2.968926086E0,6.231092377E0,6.933317652E0
1.206422529E1,-9.038204956E-1,2.880909119E0,6.360423431E0,7.040704160E0
1.207426829E1,-9.898915100E-1,2.855761414E0,6.469696198E0,7.140884213E0
1.208431129E1,-8.762777710E-1,2.983296204E0,6.639592896E0,7.331583239E0
1.209435429E1,-5.162763977E-1,3.231480103E0,6.744674377E0,7.496641743E0
1.210439729E1,-5.448669434E-2,3.545377350E0,6.801556091E0,7.670321676E0
1.211444029E1,2.471360779E-1,3.875890045E0,6.911577301E0,7.928019972E0
1.212448329E1,3.311114502E-1,4.059258728E0,7.075785828E0,8.164187730E0
1.213452629E1,4.715194702E-2,4.005819855E0,7.264992371E0,8.296320278E0
1.214456829E1,-3.182382202E-1,3.834725647E0,7.345075836E0,8.291956065E0
1.215461129E1,-6.468049622E-1,3.794459381E0,7.399712219E0,8.340984329E0
1.216465429E1,-8.631051636E-1,3.846401367E0,7.680827637E0,8.633357816E0
1.217469729E1,-1.041234741E0,3.936813354E0,7.958200836E0,8.939554224E0
1.218474029E1,-1.020128632E0,4.025279388E0,8.011340332E0,9.023586343E0
1.219478329E1,-8.446934509E-1,4.199217682E0,7.825426941E0,8.921000111E0
1.220482629E1,-7.229965210E-1,4.409380646E0,7.718399506E0,8.918466941E0
1.221486929E1,-5.505551147E-1,4.654421082E0,7.851772156E0,9.144237121E0
1.222491229E1,-2.938389587E-1,4.926106110E0,8.112829285E0,9.495833915E0
1.223495529E1,-3.802093506E-2,5.251529388E0,8.374784546E0,9.885192092E0
1.224499829E1,1.450483704E-1,5.483846283E0,8.445138245E0,1.007045029E1
1.225504129E1,1.736389160E-1,5.618266754E0,8.487350464E0,1.017989144E1
1.226508429E1,8.397537231E-2,5.624254303E0,8.606352997E0,1.028146878E1
1.227512729E1,-1.016386414E-1,5.524860992E0,8.722062378E0,1.032515334E1
1.228517029E1,-3.237767029E-1,5.395230560E0,8.841364288E0,1.036258011E1
1.229521329E1,-5.942642212E-1,5.286556549E0,8.951684875E0,1.041314036E1
1.230525629E1,-8.376580811E-1,5.140310669E0,8.997789001E0,1.039637782E1
1.231529929E1,-9.776170349E-1,4.928650818E0,9.054371338E0,1.035514241E1
1.232534229E1,-1.180594940E0,4.687951355E0,9.264983368E0,1.045038799E1
1.233538529E1,-1.278341675E0,4.388873291E0,9.643546143E0,1.067212952E1
1.234542829E1,-1.535806274E0,4.093088379E0,1.016281631E1,1.106322326E1
1.235547129E1,-1.848356323E0,4.048780518E0,1.062730042E1,1.152165608E1
1.236551429E1,-1.848655701E0,4.264032898E0,1.082743423E1,1.178273468E1
1.237555729E1,-1.546583862E0,4.636308746E0,1.059676392E1,1.166956237E1
1.238560029E1,-1.268162842E0,5.065466309E0,1.011506561E1,1.138339748E1
1.239564329E1,-1.015039215E0,5.300926666E0,9.828561401E0,1.121297228E1
1.240568629E1,-7.857160950E-1,5.304219818E0,1.013123199E1,1.146272042E1
1.241572929E1,-5.950126648E-1,4.954996033E0,1.094434113E1,1.202849236E1
1.242577229E1,-6.078858948E-1,4.335883484E0,1.191641968E1,1.269529317E1
1.243581529E1,-8.997789001E-1,3.641926575E0,1.266351608E1,1.320749298E1
1.244585829E1,-1.257235565E0,3.076701965E0,1.300420761E1,1.342222604E1
1.245590129E1,-1.329235840E0,2.854563904E0,1.284598663E1,1.322629107E1
1.246594429E1,-1.128203888E0,2.996319122E0,1.200293976E1,1.242261386E1
1.247598729E1,-7.616162109E-1,3.492986298E0,1.067056046E1,1.125352713E1
1.248603029E1,-4.032614136E-1,4.104315033E0,9.674831085E0,1.051714687E1
1.249607329E1,-1.354682922E-1,4.407883759E0,9.295819244E0,1.028883114E1
1.250611629E1,-1.790277100E-1,4.207001495E0,9.351952515E0,1.025621413E1
1.251615929E1,-5.013075256E-1,3.711681519E0,9.569450226E0,1.027629634E1
1.252620229E1,-7.442523193E-1,3.120261383E0,9.822424164E0,1.033295500E1
1.253624529E1,-7.836204529E-1,2.720293121E0,9.981692963E0,1.037536747E1
1.254628829E1,-6.676116943E-1,2.571801910E0,9.973160706E0,1.032103701E1
1.255633129E1,-4.748126221E-1,2.619103546E0,9.760453033E0,1.011689645E1
1.256637429E1,-9.071136475E-2,2.859653320E0,9.388476563E0,9.814751032E0
1.257641729E1,3.091072083E-1,3.153192902E0,8.921597443E0,9.467474514E0
1.258646029E1,4.860392761E-1,3.335663452E0,8.388705597E0,9.040645244E0
1.259650329E1,3.189866638E-1,3.256029053E0,7.869136047E0,8.522134698E0
1.260654629E1,5.837860107E-3,2.973117371E0,7.533533936E0,8.098987254E0
1.261658929E1,-2.697390747E-1,2.689906311E0,7.452552338E0,7.927729276E0
1.262663229E1,-4.828958130E-1,2.505489807E0,7.418722687E0,7.845260598E0
1.263667529E1,-5.056484985E-1,2.515818329E0,7.236551514E0,7.678066168E0
1.264671829E1,-3.812571716E-1,2.708168335E0,6.968009949E0,7.485499009E0
1.265676129E1,-1.522334290E-1,3.036435699E0,6.707102509E0,7.363989465E0
1.266680429E1,1.417552185E-1,3.406017151E0,6.658154297E0,7.480111364E0
1.267684729E1,3.486250305E-1,3.765569458E0,6.852001190E0,7.826300088E0
1.268689029E1,5.671705627E-1,3.980821838E0,7.160359955E0,8.212148296E0
1.269693329E1,5.505551147E-1,3.978576508E0,7.405250702E0,8.424364660E0
1.270697629E1,3.444337463E-1,3.774550781E0,7.525750122E0,8.426314918E0
1.271701929E1,1.522334290E-1,3.560495911E0,7.581434326E0,8.377258059E0
1.272706229E1,-3.517684937E-2,3.428919525E0,7.657625885E0,8.390349261E0
1.273710529E1,-2.573149109E-1,3.374582520E0,7.748486938E0,8.455357354E0
1.274714829E1,-4.936734009E-1,3.363655243E0,7.930658112E0,8.628628402E0
1.275719129E1,-6.460565186E-1,3.369493103E0,7.952812042E0,8.661298527E0
1.276723429E1,-7.680528259E-1,3.413651276E0,7.976013794E0,8.709748344E0
1.277727729E1,-6.985972595E-1,3.554059296E0,8.021369476E0,8.801235361E0
1.278732008E1,-5.694158936E-1,3.769760742E0,8.115523682E0,8.966440494E0
1.279736308E1,-4.314028931E-1,3.976630554E0,8.117619324E0,9.049610075E0
1.280740608E1,-3.532653809E-1,4.192332001E0,8.120463409E0,9.145620264E0
1.281744908E1,-3.535647583E-1,4.386328583E0,8.025411072E0,9.152710492E0
1.282749208E1,-2.763253784E-1,4.631069641E0,7.827223206E0,9.098823267E0
1.283753508E1,-2.022294617E-1,4.908742218E0,7.720944214E0,9.151482201E0
1.284757808E1,-2.001338196E-1,5.087171173E0,7.742499390E0,9.266372585E0
1.285762108E1,-1.993853760E-1,5.185516663E0,7.804171143E0,9.372002177E0
1.286766408E1,-2.495310974E-1,5.230273590E0,7.937843170E0,9.509331301E0
1.287770708E1,-3.026705933E-1,5.224884796E0,8.164621582E0,9.698044968E0
1.288775008E1,-2.637515259E-1,5.060077515E0,8.576115875E0,9.961110020E0
1.289779308E1,-2.492317200E-1,4.899162140E0,9.134005737E0,1.036792973E1
1.290783608E1,-2.550695801E-1,4.800367584E0,9.633367310E0,1.076616715E1
1.291787908E1,-3.498225403E-1,4.652774506E0,9.958341522E0,1.099723839E1
1.292792208E1,-6.171665955E-1,4.455634460E0,1.036968613E1,1.130327224E1
1.293796508E1,-1.072519684E0,4.224515076E0,1.091784622E1,1.175568765E1
1.294800808E1,-1.265917511E0,4.039799194E0,1.139595200E1,1.215690119E1
1.295805108E1,-1.389710083E0,4.037853241E0,1.158051819E1,1.234276932E1
1.296809408E1,-1.438658295E0,4.223467255E0,1.149953659E1,1.233477828E1
1.297813708E1,-1.067579956E0,4.424798584E0,1.129236740E1,1.217522612E1
1.298818008E1,-4.867877197E-1,4.624932404E0,1.099254089E1,1.193578306E1
1.299822308E1,1.583706665E-1,4.801565094E0,1.058927948E1,1.162811027E1
1.300826608E1,5.896238708E-1,4.900659027E0,1.032492920E1,1.144413728E1
1.301830908E1,8.660989380E-1,4.912634125E0,1.044497955E1,1.157504641E1
1.302835208E1,8.779243469E-1,4.722679138E0,1.059811111E1,1.163591030E1
1.303839508E1,4.914280701E-1,4.522245941E0,1.065409470E1,1.158455626E1
1.304843808E1,-1.294807434E-1,4.299808502E0,1.083072739E1,1.165374507E1
1.305848108E1,-7.749385071E-1,3.927083588E0,1.099298996E1,1.169907447E1
1.306852408E1,-1.337917786E0,3.488046570E0,1.092173813E1,1.154300033E1
1.307856708E1,-1.653311920E0,3.273542633E0,1.041085052E1,1.103790425E1
1.308861008E1,-1.529669037E0,3.388054504E0,9.618847504E0,1.031217862E1
1.309865308E1,-1.066681824E0,3.705993347E0,8.871601410E0,9.673546836E0
1.310869608E1,-3.656895447E-1,3.991599426E0,8.531658325E0,9.426334845E0
1.311873908E1,5.111869812E-1,4.015100555E0,8.625213776E0,9.527678483E0
1.312878208E1,1.208586731E0,3.833528137E0,9.142088928E0,9.986711663E0
1.313882508E1,1.573078766E0,3.633094940E0,9.867929535E0,1.063249684E1
1.314886808E1,1.544188843E0,3.324586487E0,1.042671753E1,1.105232251E1
1.315891108E1,1.431024170E0,2.944227448E0,1.061562469E1,1.110890603E1
1.316895408E1,1.206940155E0,2.794688416E0,1.038300842E1,1.082006709E1
1.317899708E1,8.909472656E-1,2.938539276E0,9.738448792E0,1.021108148E1
1.318904008E1,7.445516968E-1,3.197201385E0,8.809031525E0,9.400823918E0
1.319908308E1,6.855743408E-1,3.484753418E0,7.824678497E0,8.592968762E0
1.320912608E1,5.113366699E-1,3.646267548E0,7.080875244E0,7.980947716E0
1.321916908E1,3.567082214E-1,3.642375641E0,6.654561768E0,7.594559459E0
1.322921208E1,3.891906738E-2,3.508553925E0,6.498286743E0,7.385065736E0
1.323925508E1,-2.284249878E-1,3.327729950E0,6.647825775E0,7.437711485E0
1.324929808E1,-3.631448364E-1,3.091221771E0,6.909930725E0,7.578566410E0
1.325934108E1,-4.947212219E-1,2.937641144E0,7.049590302E0,7.653182867E0
1.326938408E1,-5.156776428E-1,2.975213013E0,7.097341003E0,7.712980307E0
1.327942708E1,-4.183799744E-1,3.022963715E0,7.170239410E0,7.792668646E0
1.328947008E1,-2.667453003E-1,3.078198853E0,7.217241669E0,7.850798592E0
1.329951308E1,-9.699829102E-2,3.236120453E0,7.010521545E0,7.722000815E0
1.330955608E1,2.110610962E-2,3.421435089E0,6.715485077E0,7.536869599E0
1.331959908E1,2.200424194E-2,3.573668518E0,6.665189667E0,7.562826466E0
1.332964208E1,-4.580474854E-2,3.632945251E0,6.910529480E0,7.807419994E0
1.333968508E1,-5.029541016E-2,3.646566925E0,7.329208832E0,8.186408374E0
1.334972808E1,-8.083190918E-3,3.743864594E0,7.565417633E0,8.441097760E0
1.335977108E1,-8.382568359E-2,3.876339111E0,7.688012695E0,8.610375767E0
1.336981408E1,-2.348616028E-1,3.961961060E0,7.861352234E0,8.806426878E0
1.337985708E1,-2.897973633E-1,3.940555573E0,8.053402863E0,8.970465896E0
1.338990008E1,-2.909948730E-1,3.935166779E0,8.196654968E0,9.096997761E0
1.339994308E1,-2.365081787E-1,4.033811646E0,8.253686371E0,9.189717690E0
1.340998608E1,-1.068777466E-1,4.188739471E0,8.297395477E0,9.295360828E0
1.342002908E1,-2.395019531E-3,4.468956757E0,8.419691162E0,9.532196992E0
1.343007208E1,1.216969299E-1,4.745132446E0,8.557105408E0,9.785455791E0
1.344011508E1,2.567161560E-1,4.969964905E0,8.713230743E0,1.003428345E1
1.345015808E1,3.507206726E-1,5.095104675E0,8.884175262E0,1.024752003E1
1.346020108E1,4.061054993E-1,5.147795105E0,9.081015930E0,1.044650977E1
1.347024408E1,3.823049927E-1,5.127736816E0,9.242679749E0,1.057671834E1
1.348028708E1,1.432521057E-1,5.023553467E0,9.470955048E0,1.072173494E1
1.349033008E1,-2.715353394E-1,4.834795990E0,1.004486160E1,1.115115368E1
1.350037308E1,-4.222718811E-1,4.566853180E0,1.055470139E1,1.150809206E1
1.351041608E1,-4.314028931E-1,4.377347260E0,1.053224808E1,1.141383052E1
1.352045908E1,-5.560935974E-1,4.284540253E0,1.019784348E1,1.107531204E1
1.353050208E1,-6.322851562E-1,4.152215424E0,1.015892441E1,1.099292602E1
1.354054508E1,-7.303312683E-1,3.930077362E0,1.053179901E1,1.126488714E1
1.355058808E1,-1.065783691E0,3.796704712E0,1.105301514E1,1.173541670E1
1.356063108E1,-1.259181519E0,3.882476349E0,1.137439682E1,1.208453821E1
1.357067408E1,-1.164129181E0,4.237537994E0,1.133757339E1,1.215946115E1
1.358071708E1,-8.144563293E-1,4.757706299E0,1.092667786E1,1.194535045E1
1.359076008E1,-4.415817261E-1,5.353168030E0,1.028226791E1,1.160070842E1
1.360080308E1,-9.610015869E-2,5.743107147E0,9.712552643E0,1.128389090E1
1.361084608E1,2.222877502E-1,5.662275238E0,9.597741394E0,1.114573517E1
1.362088908E1,2.501298523E-1,5.104085999E0,1.017329453E1,1.138464669E1
1.363093208E1,-2.480342102E-1,4.224664764E0,1.124970612E1,1.201936775E1
1.364097508E1,-8.849597168E-1,3.288960571E0,1.192345505E1,1.240037079E1
1.365101808E1,-1.418001251E0,2.632425842E0,1.174158325E1,1.211631836E1
1.366106108E1,-1.472787323E0,2.602787476E0,1.056383240E1,1.097898721E1
1.367110408E1,-1.284927979E0,3.165018311E0,8.929231567E0,9.560311564E0
1.368114708E1,-1.015338593E0,3.847299500E0,7.724387054E0,8.689003468E0
1.369119008E1,-7.640112305E-1,4.215084686E0,7.275620270E0,8.443062382E0
1.370123308E1,-6.093827820E-1,4.104015656E0,7.409891052E0,8.492395262E0
1.371127608E1,-5.736071777E-1,3.606749725E0,7.963889008E0,8.761346752E0
1.372131908E1,-5.179229736E-1,3.051254883E0,9.105864258E0,9.617440639E0
1.373136208E1,-4.272116089E-1,2.568209381E0,1.039857605E1,1.071954258E1
1.374140508E1,-4.658312988E-1,2.205513611E0,1.121991806E1,1.144411859E1
1.375144808E1,-4.995112610E-1,2.051334229E0,1.150432663E1,1.169645309E1
1.376149108E1,-4.493655396E-1,2.073338470E0,1.138547379E1,1.158143666E1
1.377153408E1,-3.664379883E-1,2.309098206E0,1.070184540E1,1.095425517E1
1.378157692E1,-1.815724182E-1,2.614912262E0,9.657766571E0,1.000715693E1
1.379161992E1,2.694396973E-3,2.936293945E0,8.767418060E0,9.246050445E0
1.380166292E1,8.816665649E-2,3.139421539E0,8.401878204E0,8.969687749E0
1.381170592E1,-7.828720093E-2,3.215014343E0,8.280330963E0,8.882923335E0
1.382174892E1,-3.785627747E-1,3.132835236E0,8.028704224E0,8.626590166E0
1.383179192E1,-4.555027771E-1,3.085832977E0,7.618108063E0,8.231975364E0
1.384183492E1,-3.393443298E-1,3.249293060E0,7.191794586E0,7.899048635E0
1.385187792E1,-1.661544800E-2,3.574267273E0,6.802603912E0,7.684470222E0
1.386192092E1,2.977308655E-1,3.916605377E0,6.511758728E0,7.604698750E0
1.387196392E1,5.390290833E-1,4.142036591E0,6.359225922E0,7.608335810E0
1.388200692E1,5.975573730E-1,4.243076477E0,6.327641602E0,7.641977561E0
1.389204992E1,4.670288086E-1,4.257296906E0,6.439309387E0,7.733524309E0
1.390209292E1,1.868115234E-1,4.130360870E0,6.657106476E0,7.836571067E0
1.391213592E1,-1.471440125E-1,3.937412109E0,6.894363098E0,7.940850585E0
1.392217892E1,-3.608995056E-1,3.761827240E0,7.102131042E0,8.044989620E0
1.393222192E1,-5.237608337E-1,3.608545990E0,7.236701202E0,8.103442100E0
1.394226492E1,-8.134085083E-1,3.522175598E0,7.500602417E0,8.326247112E0
1.395230792E1,-9.624984741E-1,3.467389526E0,7.826774139E0,8.614382559E0
1.396235092E1,-1.050665131E0,3.447181549E0,8.052953796E0,8.822529269E0
1.397239392E1,-1.083446960E0,3.569177856E0,8.305927734E0,9.105016387E0
1.398243692E1,-8.084687805E-1,3.861220551E0,8.556955719E0,9.422533475E0
1.399247992E1,-4.776567078E-1,4.226610718E0,8.510701904E0,9.514433299E0
1.400252292E1,-2.707868958E-1,4.570445709E0,8.278534698E0,9.460255614E0
1.401256592E1,-1.954934692E-1,4.850513306E0,8.231083374E0,9.555963088E0
1.402260892E1,-9.909393311E-2,5.025649109E0,8.321495361E0,9.721844147E0
1.403265192E1,-8.068222046E-2,5.062023468E0,8.475824432E0,9.872699277E0
1.404269492E1,-4.610412598E-2,5.096601562E0,8.646020508E0,1.003649061E1
1.405273792E1,-1.812730408E-1,5.074447632E0,8.777147827E0,1.014007903E1
1.406278092E1,-3.650907898E-1,4.909640350E0,9.130113831E0,1.037288958E1
1.407282392E1,-3.390449524E-1,4.669988708E0,9.606872406E0,1.068717659E1
1.408286692E1,-2.444416809E-1,4.483925629E0,9.869276733E0,1.084287619E1
1.409290992E1,-8.247848511E-2,4.371210022E0,9.789193268E0,1.072112795E1
1.410295292E1,2.709365845E-2,4.334685974E0,9.613309021E0,1.054542303E1
1.411299592E1,1.486408997E-1,4.331841888E0,9.661059723E0,1.058881595E1
1.412303892E1,-6.301895142E-2,4.268373871E0,9.905351715E0,1.078605486E1
1.413308192E1,-5.010081482E-1,4.176914062E0,1.041968216E1,1.123687664E1
1.414312492E1,-1.021026764E0,4.106710052E0,1.095481934E1,1.174374854E1
1.415316792E1,-1.173110504E0,4.148173828E0,1.107576782E1,1.188512378E1
1.416321092E1,-9.216334534E-1,4.220623169E0,1.079644867E1,1.162868746E1
1.417325392E1,-4.704716492E-1,4.288731537E0,1.065903442E1,1.149911199E1
1.418329692E1,5.628295898E-2,4.226760406E0,1.072444839E1,1.152746567E1
1.419333992E1,4.216731262E-1,4.209695892E0,1.076725937E1,1.156863095E1
1.420338292E1,6.087840271E-1,4.275409241E0,1.084225342E1,1.167065557E1
1.421342592E1,8.638536072E-1,4.280648346E0,1.093940140E1,1.177882406E1
1.422346892E1,8.875044250E-1,4.289180603E0,1.071441925E1,1.157512480E1
1.423351192E1,4.938230896E-1,4.299509125E0,1.029798523E1,1.117041359E1
1.424355492E1,-1.134640503E-1,4.105811920E0,1.007704468E1,1.088197570E1
1.425359792E1,-6.224057007E-1,3.713477783E0,1.012973511E1,1.080688852E1
1.426364092E1,-9.202862549E-1,3.365002441E0,1.024918671E1,1.082663366E1
1.427368392E1,-1.007854156E0,3.246898041E0,1.008333160E1,1.064103816E1
1.428372692E1,-7.723937988E-1,3.307821350E0,9.664951630E0,1.024448946E1
1.429376992E1,-1.267863464E-1,3.455564117E0,9.268426208E0,9.892457861E0
1.430381292E1,7.804769897E-1,3.611390076E0,9.110654297E0,9.831342956E0
1.431385592E1,1.733245697E0,3.689976654E0,9.187145233E0,1.005105496E1
1.432389892E1,2.256856842E0,3.674259338E0,9.555379486E0,1.048326579E1
1.433394192E1,2.126777344E0,3.451223145E0,1.019155655E1,1.096822447E1
1.434398492E1,1.773511963E0,3.021766205E0,1.071127579E1,1.126977572E1
1.435402792E1,1.383872223E0,2.624642029E0,1.078327606E1,1.118404626E1
1.436407092E1,9.196875000E-1,2.546354828E0,1.034887939E1,1.069715162E1
1.437411392E1,5.773493958E-1,2.727029114E0,9.783355408E0,1.017271169E1
1.438415692E1,4.281097412E-1,3.057541809E0,9.149723053E0,9.656566254E0
1.439419992E1,3.829037476E-1,3.374133453E0,8.402177582E0,9.062448894E0
1.440424292E1,3.221301270E-1,3.595672760E0,7.609875183E0,8.422756717E0
1.441428592E1,3.224295044E-1,3.751199341E0,7.062912598E0,8.003761094E0
1.442432892E1,3.465293884E-1,3.860172729E0,6.881190491E0,7.897581825E0
1.443437192E1,3.625460815E-1,3.790866852E0,6.994804230E0,7.964257490E0
1.444441492E1,3.002755737E-1,3.650159454E0,7.145241394E0,8.029215655E0
1.445445792E1,1.956431580E-1,3.482508087E0,7.187154236E0,7.988824997E0
1.446450092E1,7.783813477E-2,3.476969604E0,7.246580658E0,8.037929313E0
1.447454392E1,1.197509766E-3,3.580853577E0,7.239994354E0,8.077130185E0
1.448458692E1,5.822891235E-2,3.761378174E0,7.126679993E0,8.058593183E0
1.449462992E1,1.751358032E-1,3.871100006E0,6.866820374E0,7.884751730E0
1.450467292E1,2.392025757E-1,3.997736664E0,6.652466125E0,7.764948284E0
1.451471592E1,2.920426941E-1,4.125720520E0,6.698270874E0,7.872337102E0
1.452475892E1,2.549198914E-1,4.179758148E0,6.897955627E0,8.069520070E0
1.453480192E1,1.544787598E-1,4.179758148E0,7.074738007E0,8.218647074E0
1.454484492E1,-1.365161133E-1,4.101770325E0,7.261549530E0,8.341058567E0
1.455488792E1,-4.677772522E-1,3.981420593E0,7.550448761E0,8.548672528E0
1.456493092E1,-6.265969849E-1,3.874093781E0,7.792196045E0,8.724651604E0
1.457497392E1,-6.700067139E-1,3.895349579E0,7.710765381E0,8.664788520E0
1.458501692E1,-5.539979553E-1,4.040996704E0,7.470964050E0,8.511866537E0
1.459505992E1,-3.451821899E-1,4.307742004E0,7.380701752E0,8.552809496E0
1.460510292E1,-1.498384094E-1,4.528383179E0,7.500003662E0,8.762349040E0
1.461514592E1,-3.442840576E-3,4.670886841E0,7.962392120E0,9.231299151E0
1.462518892E1,1.425036621E-1,4.759801941E0,8.410709839E0,9.665198488E0
1.463523192E1,1.863624573E-1,4.750221863E0,8.602012024E0,9.828222096E0
1.464527492E1,6.870712280E-2,4.778513031E0,8.833281097E0,1.004319483E1
1.465531792E1,-8.083190918E-3,4.872367859E0,9.148226166E0,1.036484809E1
1.466536092E1,2.664459229E-2,4.986580353E0,9.328601074E0,1.057778292E1
1.467540392E1,1.239422607E-1,5.106481018E0,9.258995819E0,1.057452191E1
1.468544692E1,2.621049500E-1,5.148543549E0,9.052724762E0,1.041767850E1
1.469548992E1,3.791615295E-1,5.085225220E0,8.976982269E0,1.032421860E1
1.470553292E1,2.537223816E-1,4.961282959E0,9.192384338E0,1.044885800E1
1.471557592E1,-1.377136230E-2,4.636907501E0,9.499994659E0,1.057123452E1
1.472561892E1,-3.514691162E-1,4.178261261E0,9.800868988E0,1.066013277E1
1.473566192E1,-8.804690552E-1,3.855382690E0,1.028645920E1,1.102045572E1
1.474570492E1,-1.397643585E0,3.753594360E0,1.082743423E1,1.154453162E1
1.475574792E1,-1.629511414E0,3.864214325E0,1.107756409E1,1.184482528E1
1.476579092E1,-1.373244324E0,4.250860291E0,1.069555847E1,1.159096994E1
1.477583392E1,-9.809101868E-1,4.809348907E0,9.870923309E0,1.102393526E1
1.478587729E1,-6.698570251E-1,5.318739624E0,9.395062866E0,1.081688060E1
1.479592029E1,-2.909948730E-1,5.520819397E0,9.444759521E0,1.094383878E1
1.480596329E1,9.041198730E-2,5.168152771E0,9.914333038E0,1.118087550E1
1.481600629E1,7.035369873E-3,4.381688232E0,1.082144669E1,1.167488542E1
1.482604929E1,-4.966671753E-1,3.474275208E0,1.176238998E1,1.227481506E1
1.483609229E1,-1.033750305E0,2.743195496E0,1.210263245E1,1.245260910E1
1.484613529E1,-1.164877625E0,2.412832489E0,1.163156204E1,1.193616086E1
1.485617829E1,-8.610095215E-1,2.645598450E0,1.040665924E1,1.077214394E1
1.486622129E1,-5.827381897E-1,3.250939636E0,9.138346710E0,9.716870531E0
1.487626429E1,-2.874023438E-1,3.690425720E0,8.377179565E0,9.158546805E0
1.488630729E1,-7.694000244E-2,3.646267548E0,8.254434814E0,9.024238522E0
1.489635029E1,-6.511459351E-2,3.256777496E0,8.782386932E0,9.367025131E0
1.490639329E1,-2.624043274E-1,2.826721802E0,9.809401245E0,1.021193248E1
1.491643629E1,-4.954696655E-1,2.409689026E0,1.091709778E1,1.119084962E1
1.492647929E1,-7.801776123E-1,1.982028351E0,1.161389877E1,1.180761442E1
1.493652229E1,-9.060658264E-1,1.714235229E0,1.176373718E1,1.192246074E1
1.494656529E1,-7.957452393E-1,1.750459900E0,1.149399811E1,1.165372528E1
1.495660829E1,-5.737568665E-1,2.055375824E0,1.086725143E1,1.107478760E1
1.496665129E1,-2.836601257E-1,2.499352570E0,9.962981873E0,1.027561356E1
1.497669529E1,-3.323089600E-2,2.954106903E0,9.193581848E0,9.656593555E0
1.498673729E1,1.451980591E-1,3.313359833E0,8.830287323E0,9.432571763E0
1.499678029E1,3.477268982E-1,3.558699646E0,8.673862610E0,9.381958737E0
1.500682329E1,5.005590820E-1,3.741918640E0,8.354127502E0,9.167549336E0
1.501686729E1,5.888754272E-1,3.861968994E0,7.938142548E0,8.847354740E0
1.502691029E1,7.081773376E-1,3.992796936E0,7.595056000E0,8.609809414E0
1.503695329E1,7.815248108E-1,4.107308807E0,7.301217041E0,8.413592393E0
1.504699629E1,8.434959412E-1,4.179009705E0,7.025340729E0,8.217725955E0
1.505703929E1,7.741900635E-1,4.181704102E0,6.894662476E0,8.100764785E0
1.506708229E1,5.396278381E-1,4.066743164E0,7.022197266E0,8.132702663E0
1.507712529E1,3.538641357E-1,3.862118683E0,7.404202881E0,8.358432918E0
1.508716829E1,3.156935120E-1,3.748205566E0,7.705825653E0,8.574873548E0
1.509721129E1,1.832189941E-1,3.728446655E0,7.738457794E0,8.591775875E0
1.510725429E1,-1.002914429E-2,3.689826965E0,7.639363861E0,8.483796545E0
1.511729729E1,-1.745370483E-1,3.602857819E0,7.635172577E0,8.444341770E0
1.512734029E1,-3.381468201E-1,3.580254822E0,7.619305573E0,8.425341849E0
1.513738329E1,-4.278103638E-1,3.639980621E0,7.507338409E0,8.354197186E0
1.514742629E1,-3.951782227E-1,3.702101440E0,7.411088562E0,8.293729835E0
1.515746929E1,-2.595602417E-1,3.791764984E0,7.591762848E0,8.489977406E0
1.516751229E1,-3.097059631E-1,3.893703003E0,8.102201385E0,8.994582155E0
1.517755529E1,-4.346960449E-1,3.879781952E0,8.487350464E0,9.342204587E0
1.518759829E1,-7.300318909E-1,3.886817322E0,8.771160278E0,9.621514854E0
1.519764129E1,-8.532257080E-1,3.915407867E0,8.851094055E0,9.715980591E0
1.520768429E1,-7.605683899E-1,4.060755615E0,8.485554199E0,9.437840352E0
1.521772729E1,-6.686595154E-1,4.412524109E0,7.814349976E0,8.998974392E0
1.522777029E1,-5.334906006E-1,4.734504547E0,7.420518951E0,8.818403883E0
1.523781329E1,-3.159928894E-1,4.956792297E0,7.510182495E0,9.004025905E0
1.524785629E1,-1.926493835E-1,5.127138062E0,7.884853363E0,9.407208462E0
1.525789929E1,-3.659889221E-1,5.092859344E0,8.301137695E0,9.745770941E0
1.526794229E1,-7.397616577E-1,4.911885681E0,8.733738098E0,1.004748971E1
1.527798529E1,-1.061143341E0,4.578678589E0,9.133257294E0,1.027164600E1
1.528802829E1,-1.036295013E0,4.272265778E0,9.293274536E0,1.028061836E1
1.529807129E1,-8.876541138E-1,4.134552155E0,9.389225006E0,1.029757241E1
1.530811429E1,-6.099815369E-1,4.160448303E0,9.568402405E0,1.045158993E1
1.531815729E1,-4.825964355E-1,4.203558655E0,9.826914825E0,1.069911490E1
1.532820029E1,-4.966671753E-1,4.192631378E0,1.001402573E1,1.086763762E1
1.533824329E1,-7.770341492E-1,4.227209473E0,1.015593063E1,1.102796486E1
1.534828629E1,-1.164129181E0,4.302802277E0,1.032268387E1,1.124398090E1
1.535832929E1,-1.469943237E0,4.266876984E0,1.035561539E1,1.129627117E1
1.536837229E1,-1.351389771E0,4.266427917E0,1.018077896E1,1.112101262E1
1.537841529E1,-9.418414307E-1,4.279450836E0,9.891879730E0,1.081896711E1
1.538845829E1,-5.822891235E-1,4.332290955E0,9.911339264E0,1.083247209E1
1.539850129E1,-2.580633545E-1,4.374054108E0,1.027014313E1,1.116578640E1
1.540854429E1,1.787283325E-1,4.405339050E0,1.073807007E1,1.160797591E1
1.541858729E1,6.412664795E-1,4.446054382E0,1.099298996E1,1.187537160E1
1.542863029E1,9.713301086E-1,4.553530884E0,1.095886093E1,1.190692062E1
1.543867329E1,1.047821045E0,4.616549835E0,1.081246536E1,1.180338377E1
1.544871629E1,7.375163269E-1,4.465513916E0,1.092039093E1,1.182115404E1
1.545875929E1,1.654060364E-1,4.113296356E0,1.124476639E1,1.197461219E1
1.546880229E1,-4.501139832E-1,3.644321594E0,1.123563538E1,1.182045620E1
1.547884529E1,-8.770262146E-1,3.335513763E0,1.076890594E1,1.130770367E1
1.548888829E1,-8.952882385E-1,3.183130646E0,1.014560211E1,1.067085301E1
1.549893129E1,-5.411247253E-1,3.131338348E0,9.674681396E0,1.018319969E1
1.550897429E1,-7.214996338E-2,3.037782898E0,9.413324890E0,9.891613419E0
1.551901729E1,5.604345703E-1,2.989583130E0,9.584568787E0,1.005562793E1
1.552906029E1,1.185983734E0,3.043920135E0,1.010653336E1,1.062139462E1
1.553910329E1,1.463656311E0,3.069965973E0,1.042312500E1,1.096396441E1
1.554914629E1,1.465751953E0,3.092718658E0,1.032073792E1,1.087340649E1
1.555918929E1,1.344354401E0,3.105292511E0,9.921817474E0,1.048296677E1
1.556923229E1,1.230141907E0,3.170257416E0,9.361233215E0,9.959742391E0
1.557927529E1,1.027613068E0,3.346890106E0,8.633746033E0,9.316610572E0
1.558931829E1,8.357121277E-1,3.539539490E0,7.804919586E0,8.610663407E0
1.559936129E1,6.602769470E-1,3.679049377E0,7.127727814E0,8.048346026E0
1.560940429E1,3.080593872E-1,3.735781403E0,6.694229279E0,7.672266217E0
1.561944729E1,-8.038284302E-2,3.653153229E0,6.348148956E0,7.324683275E0
1.562949029E1,-4.682263184E-1,3.501668243E0,6.034700775E0,6.992748374E0
1.563953329E1,-9.003776550E-1,3.345842285E0,5.915398865E0,6.855456531E0
1.564957629E1,-1.270258484E0,3.210224304E0,6.007607117E0,6.928956629E0
1.565961929E1,-1.550775146E0,3.066523132E0,6.232140198E0,7.116743576E0
1.566966229E1,-1.469494171E0,3.003803558E0,6.457721100E0,7.272166853E0
1.567970529E1,-1.297352142E0,3.102448425E0,6.473887482E0,7.295171550E0
1.568974829E1,-1.075962524E0,3.304977264E0,6.327042847E0,7.218867034E0
1.569979129E1,-8.893006897E-1,3.486699371E0,6.211932220E0,7.178859947E0
1.570983429E1,-7.747888184E-1,3.556304626E0,6.407575378E0,7.369167018E0
1.571987729E1,-7.195536804E-1,3.668870544E0,6.849456482E0,7.803423779E0
1.572992029E1,-7.047344971E-1,3.777394867E0,7.202871552E0,8.163744317E0
1.573996329E1,-7.467970276E-1,3.811673584E0,7.425608368E0,8.380108648E0
1.575000629E1,-6.759942627E-1,3.813020782E0,7.547305298E0,8.482801011E0
1.576004929E1,-6.063890076E-1,3.794309692E0,7.672445068E0,8.580845354E0
1.577009229E1,-5.357359314E-1,3.869603119E0,8.017627258E0,8.918698792E0
1.578013529E1,-3.980223083E-1,3.977977753E0,8.466394043E0,9.362828464E0
1.579017779E1,-4.637356567E-1,4.031716003E0,8.841963043E0,9.728828046E0
1.580022079E1,-6.129753113E-1,3.935316467E0,9.134305115E0,9.964837398E0
1.581026379E1,-6.664141846E-1,3.793860626E0,9.483079834E0,1.023554051E1
1.582030679E1,-5.701643372E-1,3.783232727E0,9.725276184E0,1.045078629E1
1.583034979E1,-2.203417969E-1,3.924389191E0,9.673783264E0,1.044181324E1
1.584039279E1,1.073268127E-1,4.165537720E0,9.462572479E0,1.033941495E1
1.585043579E1,3.010240173E-1,4.330794067E0,9.459429016E0,1.040803488E1
1.586047879E1,4.983137512E-1,4.394711151E0,9.665550385E0,1.062942458E1
1.587052179E1,5.505551147E-1,4.405339050E0,9.881102142E0,1.083264984E1
1.588056479E1,4.707710266E-1,4.403991852E0,1.001881577E1,1.095415168E1
1.589060779E1,3.420387268E-1,4.356241150E0,1.003827530E1,1.094809565E1
1.590065079E1,1.933978271E-1,4.222718811E0,1.005025040E1,1.090304040E1
1.591069379E1,8.891510010E-2,4.059408417E0,1.021535706E1,1.099273498E1
1.592073679E1,7.783813477E-2,3.887116699E0,1.051278854E1,1.120867780E1
1.593077979E1,1.047821045E-1,3.680546265E0,1.077863571E1,1.139018823E1
1.594082279E1,1.083746338E-1,3.572471008E0,1.104852448E1,1.161224299E1
1.595086579E1,1.281335449E-1,3.593128052E0,1.120030884E1,1.176324383E1
1.596090979E1,2.490820312E-1,3.705244904E0,1.105091949E1,1.165820326E1
1.597095279E1,5.150788879E-1,3.925287323E0,1.064406555E1,1.135646592E1
1.598099579E1,6.556365967E-1,4.283193054E0,1.006387207E1,1.095705814E1
1.599103879E1,8.348139954E-1,4.646487579E0,9.602681122E0,1.070038532E1
1.600108179E1,8.970845032E-1,4.765789490E0,9.837692413E0,1.096803091E1
1.601112479E1,9.247769165E-1,4.376898193E0,1.084734283E1,1.173359692E1
1.602116779E1,8.669970703E-1,3.513343964E0,1.222747284E1,1.275171995E1
1.603121079E1,3.210823059E-1,2.671344910E0,1.357407257E1,1.383815825E1
1.604125379E1,-3.456312561E-1,2.190095673E0,1.444256653E1,1.461176608E1
1.605129679E1,-6.593788147E-1,2.051633606E0,1.444032120E1,1.460023483E1
1.606133979E1,-7.560777283E-1,2.276016998E0,1.305839493E1,1.327680628E1
1.607138279E1,-5.330415344E-1,2.739453278E0,1.073567505E1,1.109249549E1
1.608142579E1,-1.345701599E-1,3.342698822E0,8.933722229E0,9.539556458E0
1.609146879E1,2.832110596E-1,3.869752808E0,8.037086792E0,8.924682594E0
1.610151179E1,4.793032837E-1,4.147425385E0,7.597600708E0,8.669164059E0
1.611155479E1,5.125341797E-1,3.988156586E0,7.718249817E0,8.702842322E0
1.612159779E1,4.170327759E-1,3.470982056E0,8.358468475E0,9.060111921E0
1.613164079E1,2.498304749E-1,2.919528809E0,9.245224457E0,9.698465806E0
1.614168379E1,3.436853027E-1,2.564317474E0,9.920619965E0,1.025244089E1
1.615172679E1,4.956193542E-1,2.397713928E0,1.018302429E1,1.047323514E1
1.616176979E1,5.758525085E-1,2.318678284E0,1.011326935E1,1.039163568E1
1.617181279E1,7.128176880E-1,2.245929565E0,9.823322296E0,1.010197850E1
1.618185579E1,8.562194824E-1,2.195634155E0,9.410031738E0,9.700650414E0
1.619189879E1,7.717950439E-1,2.134411469E0,9.008865967E0,9.290373831E0
1.620194179E1,5.405259705E-1,1.984123993E0,8.671617279E0,8.912118860E0
1.621198479E1,2.324665833E-1,1.898651733E0,8.547675018E0,8.759090554E0
1.622202779E1,-7.499404907E-2,1.852397919E0,8.510851593E0,8.710430356E0
1.623207079E1,-3.077600098E-1,1.774110718E0,8.319549408E0,8.512172896E0
1.624211379E1,-5.900729370E-1,1.740730133E0,7.966433716E0,8.175719761E0
1.625215679E1,-6.384223938E-1,1.860331421E0,7.644453278E0,7.893420175E0
1.626219979E1,-4.108955383E-1,2.124981079E0,7.372468872E0,7.683597920E0
1.627224279E1,-2.068698120E-1,2.434537354E0,7.162754974E0,7.568013350E0
1.628228579E1,-1.005908203E-1,2.786305847E0,7.001091156E0,7.535840773E0
1.629232879E1,-1.559756470E-1,3.018772430E0,6.871161346E0,7.506675272E0
1.630237179E1,-3.797602844E-1,3.093916168E0,6.852599945E0,7.528257510E0
1.631241479E1,-6.065386963E-1,3.083288269E0,6.926097107E0,7.605614826E0
1.632245779E1,-8.376580811E-1,3.052901459E0,7.021149445E0,7.701845097E0
1.633250079E1,-9.907896423E-1,3.028651886E0,7.176376648E0,7.852055664E0
1.634254379E1,-1.037492523E0,3.033292236E0,7.463778992E0,8.123130515E0
1.635258679E1,-9.003776550E-1,3.146905975E0,7.771688690E0,8.432843070E0
1.636262979E1,-7.195536804E-1,3.354224854E0,7.981552277E0,8.687563445E0
1.637267279E1,-4.336482239E-1,3.593427429E0,8.056845703E0,8.832527054E0
1.638271579E1,-2.758763123E-1,3.838318176E0,8.155640259E0,9.017941128E0
1.639275879E1,-2.917433167E-1,4.028572540E0,8.274193726E0,9.207431384E0
1.640280179E1,-3.050656128E-1,4.206402740E0,8.320597229E0,9.328409687E0
1.641284479E1,-3.544628906E-1,4.399201813E0,8.301287384E0,9.401595224E0
1.642288779E1,-2.839595032E-1,4.574636993E0,8.221503296E0,9.412813239E0
1.643293079E1,-2.005828857E-2,4.753515015E0,8.156688080E0,9.440755677E0
1.644297379E1,2.071691895E-1,4.974605255E0,8.299491119E0,9.678386713E0
1.645301679E1,3.604504395E-1,5.145250397E0,8.646469574E0,1.006801680E1
1.646305979E1,3.709286499E-1,5.140610046E0,9.043144684E0,1.040874274E1
1.647310279E1,3.197351074E-1,4.990172882E0,9.306896210E0,1.056514898E1
1.648314579E1,2.962339783E-1,4.814438324E0,9.385033722E0,1.055203435E1
1.649318879E1,2.118095398E-1,4.703518982E0,9.665849762E0,1.075158620E1
1.650323179E1,-5.987548828E-3,4.465214539E0,1.031070877E1,1.123605323E1
1.651327479E1,-1.910028076E-1,4.093387756E0,1.099059494E1,1.172968382E1
1.652331779E1,-5.680686951E-1,3.851341095E0,1.130778534E1,1.195916132E1
1.653336079E1,-9.892927551E-1,3.780238953E0,1.139535324E1,1.204670005E1
1.654340379E1,-1.202449493E0,3.897295532E0,1.136182297E1,1.207169493E1
1.655344679E1,-1.005608826E0,4.107308807E0,1.120345230E1,1.197491454E1
1.656348979E1,-6.358776855E-1,4.376000061E0,1.100706070E1,1.186208676E1
1.657353279E1,-2.773731995E-1,4.636009369E0,1.079105988E1,1.174804205E1
1.658357579E1,1.173559570E-1,4.667593689E0,1.042387344E1,1.142179237E1
1.659361879E1,2.338137817E-1,4.402195587E0,1.021071671E1,1.112172336E1
1.660366179E1,1.002914429E-2,3.928730164E0,1.031939072E1,1.104195843E1
1.661370479E1,-4.011657715E-1,3.337010651E0,1.072474777E1,1.123907420E1
1.662374779E1,-8.957373047E-1,2.819387054E0,1.127575195E1,1.165735265E1
1.663379079E1,-1.318458252E0,2.496508484E0,1.176747940E1,1.210142381E1
1.664383379E1,-1.534908142E0,2.378703461E0,1.198123489E1,1.231113978E1
1.665387679E1,-1.410367126E0,2.563419342E0,1.176747940E1,1.212575052E1
1.666391979E1,-8.422984314E-1,3.102298737E0,1.104238724E1,1.150078432E1
1.667396279E1,-7.185058594E-3,3.732039185E0,9.917626190E0,1.059657857E1
1.668400579E1,7.765850830E-1,4.156257019E0,9.033265228E0,9.973837651E0
1.669404879E1,1.468446350E0,4.299359436E0,8.764274597E0,9.871845595E0
1.670409179E1,1.727707214E0,4.151916046E0,8.925938416E0,9.994786424E0
1.671413479E1,1.506317596E0,3.767964478E0,9.271419983E0,1.012056211E1
1.672417779E1,1.206042023E0,3.278332672E0,9.484277344E0,1.010710241E1
1.673422079E1,1.019679565E0,2.960244141E0,9.501042480E0,1.000362934E1
1.674426379E1,8.590635681E-1,2.953358459E0,9.349557495E0,9.842486564E0
1.675430679E1,8.196954346E-1,3.115171967E0,8.975784760E0,9.536294303E0
1.676434979E1,8.165519714E-1,3.386856995E0,8.397686920E0,9.091683179E0
1.677439279E1,7.502398682E-1,3.611240387E0,7.783813477E0,8.613458610E0
1.678443592E1,6.105802917E-1,3.724704437E0,7.408094788E0,8.314210715E0
1.679447892E1,3.769161987E-1,3.711232452E0,7.351063385E0,8.243387958E0
1.680452192E1,1.100212097E-1,3.604953461E0,7.461533661E0,8.287477221E0
1.681456492E1,-1.591191101E-1,3.467090149E0,7.571405182E0,8.328998104E0
